,sid,gender,age,ospan_fta,cond,block,stim_type,trial,selected_ind,distance,distance_signed,near_distance,near,overlap,overlap_feedback,rt
0,42,female,18,23,active,0,men,0,0,,,,0,,,4484
1,42,female,18,23,active,0,men,1,2,2.0,2.0,2.0,1,False,False,4108
2,42,female,18,23,active,0,men,2,1,1.0,-1.0,-1.0,1,True,False,2825
3,42,female,18,23,active,0,men,3,2,1.0,1.0,1.0,1,True,True,3503
4,42,female,18,23,active,0,men,4,5,3.0,3.0,-1.0,0,True,False,3961
5,42,female,18,23,active,0,men,5,6,1.0,1.0,1.0,1,True,True,2421
6,42,female,18,23,active,0,men,6,4,2.0,-2.0,-2.0,1,False,False,8566
7,42,female,18,23,active,0,men,7,0,4.0,-4.0,-1.0,0,True,False,3163
8,42,female,18,23,active,0,men,8,5,5.0,5.0,2.0,0,False,False,3604
9,42,female,18,23,active,0,men,9,1,4.0,-4.0,-2.0,0,False,False,6976
10,42,female,18,23,active,0,men,10,4,3.0,3.0,-1.0,0,True,False,2769
11,42,female,18,23,active,0,men,11,0,4.0,-4.0,-1.0,0,True,False,3805
12,42,female,18,23,active,0,men,12,1,1.0,1.0,1.0,1,True,True,8116
13,42,female,18,23,active,0,men,13,0,1.0,-1.0,-1.0,1,True,False,4380
14,42,female,18,23,active,0,men,14,5,5.0,5.0,1.0,0,True,True,2960
15,42,female,18,23,active,0,men,15,2,3.0,-3.0,-2.0,0,False,False,3052
16,42,female,18,23,active,0,men,16,1,1.0,-1.0,-1.0,1,True,False,6337
17,42,female,18,23,active,0,men,17,2,1.0,1.0,1.0,1,True,True,4727
18,42,female,18,23,active,0,men,18,7,5.0,5.0,-2.0,0,False,False,3255
19,42,female,18,23,active,0,men,19,5,2.0,-2.0,-2.0,1,False,False,2467
20,42,female,18,23,active,0,men,20,3,2.0,-2.0,-2.0,1,False,False,6125
21,42,female,18,23,active,0,men,21,6,3.0,3.0,1.0,0,True,True,4559
22,42,female,18,23,active,0,men,22,4,2.0,-2.0,-2.0,1,False,False,3885
23,42,female,18,23,active,0,men,23,7,3.0,3.0,-1.0,0,True,False,2088
24,42,female,18,23,active,0,men,24,3,4.0,-4.0,-1.0,0,True,False,4219
25,42,female,18,23,active,0,men,25,1,2.0,-2.0,-2.0,1,False,False,5581
26,42,female,18,23,active,0,men,26,5,4.0,4.0,-1.0,0,True,False,4560
27,42,female,18,23,active,0,men,27,6,1.0,1.0,1.0,1,True,True,3456
28,42,female,18,23,active,0,men,28,1,5.0,-5.0,1.0,0,True,True,3253
29,42,female,18,23,active,0,men,29,3,2.0,2.0,2.0,1,False,False,5672
30,42,female,18,23,active,0,men,30,0,3.0,-3.0,-2.0,0,False,False,4019
31,42,female,18,23,active,0,men,31,3,3.0,3.0,1.0,0,True,True,1578
32,42,female,18,23,active,0,men,32,6,3.0,3.0,-1.0,0,True,False,1230
33,42,female,18,23,active,0,men,33,5,1.0,-1.0,-1.0,1,True,False,4773
34,42,female,18,23,active,0,men,34,0,5.0,-5.0,-2.0,0,False,False,2636
35,42,female,18,23,active,0,men,35,2,2.0,2.0,2.0,1,False,False,11738
36,42,female,18,23,active,0,men,36,3,1.0,1.0,1.0,1,True,True,6516
37,42,female,18,23,active,0,men,37,1,2.0,-2.0,-2.0,1,False,False,2746
38,42,female,18,23,active,0,men,38,6,5.0,5.0,-1.0,0,True,False,3704
39,42,female,18,23,active,0,men,39,5,1.0,-1.0,-1.0,1,True,False,3874
40,42,female,18,23,active,0,men,40,3,2.0,-2.0,-2.0,1,False,False,5628
41,42,female,18,23,active,0,men,41,4,1.0,1.0,1.0,1,True,True,2051
42,42,female,18,23,active,0,men,42,3,1.0,-1.0,-1.0,1,True,False,7844
43,42,female,18,23,active,0,men,43,7,4.0,4.0,-1.0,0,True,False,2498
44,42,female,18,23,active,0,men,44,5,2.0,-2.0,-2.0,1,False,False,6811
45,42,female,18,23,active,0,men,45,7,2.0,2.0,2.0,1,False,False,7327
46,42,female,18,23,active,0,men,46,5,2.0,-2.0,-2.0,1,False,False,6967
47,42,female,18,23,active,0,men,47,0,5.0,-5.0,-1.0,0,True,False,4030
48,42,female,18,23,active,0,men,48,6,6.0,6.0,2.0,0,False,False,4805
49,42,female,18,23,active,0,men,49,1,5.0,-5.0,-2.0,0,False,False,2466
50,42,female,18,23,active,0,men,50,3,2.0,2.0,2.0,1,False,False,4593
51,42,female,18,23,active,0,men,51,0,3.0,-3.0,1.0,0,True,True,5515
52,42,female,18,23,active,0,men,52,6,6.0,6.0,2.0,0,False,False,9275
53,42,female,18,23,active,0,men,53,2,4.0,-4.0,-2.0,0,False,False,3062
54,42,female,18,23,active,0,men,54,5,3.0,3.0,1.0,0,True,True,3166
55,42,female,18,23,active,0,men,55,6,1.0,1.0,1.0,1,True,True,3140
56,42,female,18,23,yoked,1,women,0,0,,,,0,,,4659
57,42,female,18,23,yoked,1,women,1,1,1.0,1.0,1.0,1,True,True,1747
58,42,female,18,23,yoked,1,women,2,3,2.0,2.0,2.0,1,False,False,6021
59,42,female,18,23,yoked,1,women,3,5,2.0,2.0,2.0,1,False,False,1859
60,42,female,18,23,yoked,1,women,4,2,3.0,-3.0,-2.0,0,False,False,1782
61,42,female,18,23,yoked,1,women,5,3,1.0,1.0,1.0,1,True,True,1646
62,42,female,18,23,yoked,1,women,6,7,4.0,4.0,2.0,0,False,False,2321
63,42,female,18,23,yoked,1,women,7,3,4.0,-4.0,-2.0,0,False,False,1748
64,42,female,18,23,yoked,1,women,8,7,4.0,4.0,2.0,0,False,False,781
65,42,female,18,23,yoked,1,women,9,0,7.0,-7.0,-2.0,0,False,False,1039
66,42,female,18,23,yoked,1,women,10,1,1.0,1.0,1.0,1,True,True,1106
67,42,female,18,23,yoked,1,women,11,4,3.0,3.0,-1.0,0,True,False,1322
68,42,female,18,23,yoked,1,women,12,1,3.0,-3.0,-2.0,0,False,False,1401
69,42,female,18,23,yoked,1,women,13,3,2.0,2.0,2.0,1,False,False,1466
70,42,female,18,23,yoked,1,women,14,6,3.0,3.0,-2.0,0,False,False,3076
71,42,female,18,23,yoked,1,women,15,3,3.0,-3.0,-1.0,0,True,False,1284
72,42,female,18,23,yoked,1,women,16,5,2.0,2.0,2.0,1,False,False,1534
73,42,female,18,23,yoked,1,women,17,0,5.0,-5.0,-2.0,0,False,False,1387
74,42,female,18,23,yoked,1,women,18,7,7.0,7.0,1.0,0,True,True,2198
75,42,female,18,23,yoked,1,women,19,6,1.0,-1.0,-1.0,1,True,False,5979
76,42,female,18,23,yoked,1,women,20,4,2.0,-2.0,-2.0,1,False,False,1814
77,42,female,18,23,yoked,1,women,21,2,2.0,-2.0,-2.0,1,False,False,2356
78,42,female,18,23,yoked,1,women,22,4,2.0,2.0,2.0,1,False,False,1095
79,42,female,18,23,yoked,1,women,23,1,3.0,-3.0,2.0,0,False,False,1511
80,42,female,18,23,yoked,1,women,24,6,5.0,5.0,1.0,0,True,True,1467
81,42,female,18,23,yoked,1,women,25,2,4.0,-4.0,1.0,0,True,True,2005
82,42,female,18,23,yoked,1,women,26,4,2.0,2.0,2.0,1,False,False,1432
83,42,female,18,23,yoked,1,women,27,6,2.0,2.0,2.0,1,False,False,1320
84,42,female,18,23,yoked,1,women,28,0,6.0,-6.0,-1.0,0,True,False,1071
85,42,female,18,23,yoked,1,women,29,7,7.0,7.0,1.0,0,True,True,4077
86,42,female,18,23,yoked,1,women,30,5,2.0,-2.0,-2.0,1,False,False,1668
87,42,female,18,23,yoked,1,women,31,6,1.0,1.0,1.0,1,True,True,1117
88,42,female,18,23,yoked,1,women,32,1,5.0,-5.0,-2.0,0,False,False,1534
89,42,female,18,23,yoked,1,women,33,2,1.0,1.0,1.0,1,True,True,1095
90,42,female,18,23,yoked,1,women,34,3,1.0,1.0,1.0,1,True,True,958
91,42,female,18,23,yoked,1,women,35,6,3.0,3.0,2.0,0,False,False,4212
92,42,female,18,23,yoked,1,women,36,1,5.0,-5.0,-1.0,0,True,False,1149
93,42,female,18,23,yoked,1,women,37,7,6.0,6.0,1.0,0,True,True,4391
94,42,female,18,23,yoked,1,women,38,3,4.0,-4.0,-1.0,0,True,False,3897
95,42,female,18,23,yoked,1,women,39,5,2.0,2.0,2.0,1,False,False,1725
96,42,female,18,23,yoked,1,women,40,4,1.0,-1.0,-1.0,1,True,False,1691
97,42,female,18,23,yoked,1,women,41,1,3.0,-3.0,2.0,0,False,False,5021
98,42,female,18,23,yoked,1,women,42,2,1.0,1.0,1.0,1,True,True,5336
99,42,female,18,23,yoked,1,women,43,6,4.0,4.0,1.0,0,True,True,3054
100,42,female,18,23,yoked,1,women,44,4,2.0,-2.0,-2.0,1,False,False,5629
101,42,female,18,23,yoked,1,women,45,3,1.0,-1.0,-1.0,1,True,False,1905
102,42,female,18,23,yoked,1,women,46,0,3.0,-3.0,1.0,0,True,True,6127
103,42,female,18,23,yoked,1,women,47,1,1.0,1.0,1.0,1,True,True,1959
104,42,female,18,23,yoked,1,women,48,0,1.0,-1.0,-1.0,1,True,False,1433
105,42,female,18,23,yoked,1,women,49,1,1.0,1.0,1.0,1,True,True,769
106,42,female,18,23,yoked,1,women,50,2,1.0,1.0,1.0,1,True,True,3793
107,42,female,18,23,yoked,1,women,51,7,5.0,5.0,2.0,0,False,False,3930
108,42,female,18,23,yoked,1,women,52,5,2.0,-2.0,-2.0,1,False,False,8296
109,42,female,18,23,yoked,1,women,53,2,3.0,-3.0,1.0,0,True,True,3570
110,42,female,18,23,yoked,1,women,54,7,5.0,5.0,2.0,0,False,False,2542
111,42,female,18,23,yoked,1,women,55,2,5.0,-5.0,-1.0,0,True,False,3716
112,43,female,18,7,active,1,women,0,6,,,,0,,,6339
113,43,female,18,7,active,1,women,1,0,6.0,-6.0,-2.0,0,False,False,2893
114,43,female,18,7,active,1,women,2,1,1.0,1.0,1.0,1,True,True,3592
115,43,female,18,7,active,1,women,3,5,4.0,4.0,2.0,0,False,False,2751
116,43,female,18,7,active,1,women,4,7,2.0,2.0,2.0,1,False,False,2545
117,43,female,18,7,active,1,women,5,4,3.0,-3.0,-1.0,0,True,False,2391
118,43,female,18,7,active,1,women,6,7,3.0,3.0,2.0,0,False,False,1950
119,43,female,18,7,active,1,women,7,0,7.0,-7.0,-2.0,0,False,False,2401
120,43,female,18,7,active,1,women,8,2,2.0,2.0,2.0,1,False,False,1951
121,43,female,18,7,active,1,women,9,1,1.0,-1.0,-1.0,1,True,False,2738
122,43,female,18,7,active,1,women,10,5,4.0,4.0,1.0,0,True,True,1479
123,43,female,18,7,active,1,women,11,0,5.0,-5.0,-1.0,0,True,False,1951
124,43,female,18,7,active,1,women,12,6,6.0,6.0,1.0,0,True,True,3334
125,43,female,18,7,active,1,women,13,1,5.0,-5.0,-2.0,0,False,False,2895
126,43,female,18,7,active,1,women,14,3,2.0,2.0,2.0,1,False,False,2524
127,43,female,18,7,active,1,women,15,6,3.0,3.0,-2.0,0,False,False,4606
128,43,female,18,7,active,1,women,16,5,1.0,-1.0,-1.0,1,True,False,1353
129,43,female,18,7,active,1,women,17,4,1.0,-1.0,-1.0,1,True,False,1747
130,43,female,18,7,active,1,women,18,1,3.0,-3.0,2.0,0,False,False,2604
131,43,female,18,7,active,1,women,19,5,4.0,4.0,2.0,0,False,False,13901
132,43,female,18,7,active,1,women,20,4,1.0,-1.0,-1.0,1,True,False,2018
133,43,female,18,7,active,1,women,21,2,2.0,-2.0,-2.0,1,False,False,1455
134,43,female,18,7,active,1,women,22,0,2.0,-2.0,-2.0,1,False,False,1499
135,43,female,18,7,active,1,women,23,1,1.0,1.0,1.0,1,True,True,2760
136,43,female,18,7,active,1,women,24,4,3.0,3.0,2.0,0,False,False,2660
137,43,female,18,7,active,1,women,25,7,3.0,3.0,1.0,0,True,True,4674
138,43,female,18,7,active,1,women,26,1,6.0,-6.0,-1.0,0,True,False,2557
139,43,female,18,7,active,1,women,27,2,1.0,1.0,1.0,1,True,True,1422
140,43,female,18,7,active,1,women,28,1,1.0,-1.0,-1.0,1,True,False,4472
141,43,female,18,7,active,1,women,29,3,2.0,2.0,2.0,1,False,False,3581
142,43,female,18,7,active,1,women,30,6,3.0,3.0,-2.0,0,False,False,2435
143,43,female,18,7,active,1,women,31,7,1.0,1.0,1.0,1,True,True,1960
144,43,female,18,7,active,1,women,32,3,4.0,-4.0,-1.0,0,True,False,4099
145,43,female,18,7,active,1,women,33,0,3.0,-3.0,-2.0,0,False,False,2772
146,43,female,18,7,active,1,women,34,4,4.0,4.0,1.0,0,True,True,2514
147,43,female,18,7,active,1,women,35,0,4.0,-4.0,-1.0,0,True,False,2017
148,43,female,18,7,active,1,women,36,1,1.0,1.0,1.0,1,True,True,2052
149,43,female,18,7,active,1,women,37,2,1.0,1.0,1.0,1,True,True,1400
150,43,female,18,7,active,1,women,38,0,2.0,-2.0,-2.0,1,False,False,2807
151,43,female,18,7,active,1,women,39,6,6.0,6.0,2.0,0,False,False,1872
152,43,female,18,7,active,1,women,40,4,2.0,-2.0,-2.0,1,False,False,4649
153,43,female,18,7,active,1,women,41,6,2.0,2.0,2.0,1,False,False,2367
154,43,female,18,7,active,1,women,42,2,4.0,-4.0,1.0,0,True,True,3415
155,43,female,18,7,active,1,women,43,7,5.0,5.0,-1.0,0,True,False,3537
156,43,female,18,7,active,1,women,44,6,1.0,-1.0,-1.0,1,True,False,7441
157,43,female,18,7,active,1,women,45,5,1.0,-1.0,-1.0,1,True,False,1690
158,43,female,18,7,active,1,women,46,7,2.0,2.0,2.0,1,False,False,1963
159,43,female,18,7,active,1,women,47,3,4.0,-4.0,-1.0,0,True,False,1636
160,43,female,18,7,active,1,women,48,2,1.0,-1.0,-1.0,1,True,False,2402
161,43,female,18,7,active,1,women,49,1,1.0,-1.0,-1.0,1,True,False,13841
162,43,female,18,7,active,1,women,50,7,6.0,6.0,2.0,0,False,False,3411
163,43,female,18,7,active,1,women,51,5,2.0,-2.0,-2.0,1,False,False,5089
164,43,female,18,7,active,1,women,52,2,3.0,-3.0,2.0,0,False,False,3121
165,43,female,18,7,active,1,women,53,4,2.0,2.0,2.0,1,False,False,3177
166,43,female,18,7,active,1,women,54,0,4.0,-4.0,2.0,0,False,False,1556
167,43,female,18,7,active,1,women,55,1,1.0,1.0,1.0,1,True,True,1522
168,43,female,18,7,yoked,0,men,0,0,,,,0,,,4520
169,43,female,18,7,yoked,0,men,1,5,5.0,5.0,1.0,0,True,True,6394
170,43,female,18,7,yoked,0,men,2,3,2.0,-2.0,-2.0,1,False,False,2501
171,43,female,18,7,yoked,0,men,3,6,3.0,3.0,-1.0,0,True,False,3583
172,43,female,18,7,yoked,0,men,4,7,1.0,1.0,1.0,1,True,True,4413
173,43,female,18,7,yoked,0,men,5,2,5.0,-5.0,-2.0,0,False,False,1545
174,43,female,18,7,yoked,0,men,6,3,1.0,1.0,1.0,1,True,True,1646
175,43,female,18,7,yoked,0,men,7,0,3.0,-3.0,2.0,0,False,False,3043
176,43,female,18,7,yoked,0,men,8,6,6.0,6.0,2.0,0,False,False,2234
177,43,female,18,7,yoked,0,men,9,7,1.0,1.0,1.0,1,True,True,2579
178,43,female,18,7,yoked,0,men,10,1,6.0,-6.0,-2.0,0,False,False,3730
179,43,female,18,7,yoked,0,men,11,2,1.0,1.0,1.0,1,True,True,2379
180,43,female,18,7,yoked,0,men,12,5,3.0,3.0,1.0,0,True,True,5011
181,43,female,18,7,yoked,0,men,13,2,3.0,-3.0,2.0,0,False,False,3626
182,43,female,18,7,yoked,0,men,14,3,1.0,1.0,1.0,1,True,True,2435
183,43,female,18,7,yoked,0,men,15,7,4.0,4.0,-1.0,0,True,False,2591
184,43,female,18,7,yoked,0,men,16,5,2.0,-2.0,-2.0,1,False,False,2680
185,43,female,18,7,yoked,0,men,17,7,2.0,2.0,2.0,1,False,False,3648
186,43,female,18,7,yoked,0,men,18,5,2.0,-2.0,-2.0,1,False,False,3267
187,43,female,18,7,yoked,0,men,19,7,2.0,2.0,2.0,1,False,False,1603
188,43,female,18,7,yoked,0,men,20,5,2.0,-2.0,-2.0,1,False,False,1613
189,43,female,18,7,yoked,0,men,21,3,2.0,-2.0,-2.0,1,False,False,1735
190,43,female,18,7,yoked,0,men,22,5,2.0,2.0,2.0,1,False,False,3920
191,43,female,18,7,yoked,0,men,23,1,4.0,-4.0,2.0,0,False,False,3052
192,43,female,18,7,yoked,0,men,24,2,1.0,1.0,1.0,1,True,True,2615
193,43,female,18,7,yoked,0,men,25,0,2.0,-2.0,-2.0,1,False,False,1860
194,43,female,18,7,yoked,0,men,26,6,6.0,6.0,2.0,0,False,False,2220
195,43,female,18,7,yoked,0,men,27,4,2.0,-2.0,-2.0,1,False,False,2086
196,43,female,18,7,yoked,0,men,28,1,3.0,-3.0,2.0,0,False,False,2839
197,43,female,18,7,yoked,0,men,29,0,1.0,-1.0,-1.0,1,True,False,5674
198,43,female,18,7,yoked,0,men,30,1,1.0,1.0,1.0,1,True,True,2874
199,43,female,18,7,yoked,0,men,31,5,4.0,4.0,-1.0,0,True,False,1861
200,43,female,18,7,yoked,0,men,32,2,3.0,-3.0,2.0,0,False,False,2648
201,43,female,18,7,yoked,0,men,33,4,2.0,2.0,2.0,1,False,False,3491
202,43,female,18,7,yoked,0,men,34,1,3.0,-3.0,-2.0,0,False,False,2309
203,43,female,18,7,yoked,0,men,35,0,1.0,-1.0,-1.0,1,True,False,7722
204,43,female,18,7,yoked,0,men,36,3,3.0,3.0,1.0,0,True,True,2951
205,43,female,18,7,yoked,0,men,37,7,4.0,4.0,-1.0,0,True,False,2344
206,43,female,18,7,yoked,0,men,38,0,7.0,-7.0,-2.0,0,False,False,3739
207,43,female,18,7,yoked,0,men,39,7,7.0,7.0,2.0,0,False,False,2672
208,43,female,18,7,yoked,0,men,40,2,5.0,-5.0,-1.0,0,True,False,5169
209,43,female,18,7,yoked,0,men,41,1,1.0,-1.0,-1.0,1,True,False,1805
210,43,female,18,7,yoked,0,men,42,0,1.0,-1.0,-1.0,1,True,False,5607
211,43,female,18,7,yoked,0,men,43,7,7.0,7.0,2.0,0,False,False,4009
212,43,female,18,7,yoked,0,men,44,3,4.0,-4.0,-2.0,0,False,False,3244
213,43,female,18,7,yoked,0,men,45,2,1.0,-1.0,-1.0,1,True,False,2569
214,43,female,18,7,yoked,0,men,46,5,3.0,3.0,-1.0,0,True,False,2387
215,43,female,18,7,yoked,0,men,47,2,3.0,-3.0,1.0,0,True,True,2660
216,43,female,18,7,yoked,0,men,48,0,2.0,-2.0,-2.0,1,False,False,1357
217,43,female,18,7,yoked,0,men,49,1,1.0,1.0,1.0,1,True,True,3144
218,43,female,18,7,yoked,0,men,50,5,4.0,4.0,-1.0,0,True,False,2706
219,43,female,18,7,yoked,0,men,51,2,3.0,-3.0,-1.0,0,True,False,2063
220,43,female,18,7,yoked,0,men,52,3,1.0,1.0,1.0,1,True,True,2355
221,43,female,18,7,yoked,0,men,53,4,1.0,1.0,1.0,1,True,True,2042
222,43,female,18,7,yoked,0,men,54,0,4.0,-4.0,-2.0,0,False,False,6384
223,43,female,18,7,yoked,0,men,55,3,3.0,3.0,2.0,0,False,False,1500
224,44,female,18,12,active,0,women,0,0,,,,0,,,3982
225,44,female,18,12,active,0,women,1,5,5.0,5.0,2.0,0,False,False,8488
226,44,female,18,12,active,0,women,2,7,2.0,2.0,2.0,1,False,False,7902
227,44,female,18,12,active,0,women,3,6,1.0,-1.0,-1.0,1,True,False,4231
228,44,female,18,12,active,0,women,4,5,1.0,-1.0,-1.0,1,True,False,7720
229,44,female,18,12,active,0,women,5,0,5.0,-5.0,1.0,0,True,True,3186
230,44,female,18,12,active,0,women,6,3,3.0,3.0,2.0,0,False,False,1769
231,44,female,18,12,active,0,women,7,1,2.0,-2.0,-2.0,1,False,False,2117
232,44,female,18,12,active,0,women,8,5,4.0,4.0,2.0,0,False,False,2152
233,44,female,18,12,active,0,women,9,7,2.0,2.0,2.0,1,False,False,1725
234,44,female,18,12,active,0,women,10,2,5.0,-5.0,-2.0,0,False,False,3043
235,44,female,18,12,active,0,women,11,1,1.0,-1.0,-1.0,1,True,False,11219
236,44,female,18,12,active,0,women,12,5,4.0,4.0,1.0,0,True,True,2209
237,44,female,18,12,active,0,women,13,0,5.0,-5.0,-2.0,0,False,False,2793
238,44,female,18,12,active,0,women,14,5,5.0,5.0,1.0,0,True,True,2264
239,44,female,18,12,active,0,women,15,0,5.0,-5.0,-1.0,0,True,False,1298
240,44,female,18,12,active,0,women,16,6,6.0,6.0,1.0,0,True,True,3097
241,44,female,18,12,active,0,women,17,7,1.0,1.0,1.0,1,True,True,3076
242,44,female,18,12,active,0,women,18,4,3.0,-3.0,-1.0,0,True,False,2547
243,44,female,18,12,active,0,women,19,0,4.0,-4.0,1.0,0,True,True,3367
244,44,female,18,12,active,0,women,20,6,6.0,6.0,1.0,0,True,True,3086
245,44,female,18,12,active,0,women,21,1,5.0,-5.0,-1.0,0,True,False,1411
246,44,female,18,12,active,0,women,22,6,5.0,5.0,-1.0,0,True,False,3097
247,44,female,18,12,active,0,women,23,7,1.0,1.0,1.0,1,True,True,1658
248,44,female,18,12,active,0,women,24,0,7.0,-7.0,-2.0,0,False,False,5132
249,44,female,18,12,active,0,women,25,3,3.0,3.0,1.0,0,True,True,1591
250,44,female,18,12,active,0,women,26,4,1.0,1.0,1.0,1,True,True,2782
251,44,female,18,12,active,0,women,27,2,2.0,-2.0,-2.0,1,False,False,2556
252,44,female,18,12,active,0,women,28,7,5.0,5.0,-2.0,0,False,False,8194
253,44,female,18,12,active,0,women,29,5,2.0,-2.0,-2.0,1,False,False,4019
254,44,female,18,12,active,0,women,30,3,2.0,-2.0,-2.0,1,False,False,4314
255,44,female,18,12,active,0,women,31,4,1.0,1.0,1.0,1,True,True,7180
256,44,female,18,12,active,0,women,32,2,2.0,-2.0,-2.0,1,False,False,1466
257,44,female,18,12,active,0,women,33,6,4.0,4.0,2.0,0,False,False,9420
258,44,female,18,12,active,0,women,34,2,4.0,-4.0,-2.0,0,False,False,2961
259,44,female,18,12,active,0,women,35,6,4.0,4.0,1.0,0,True,True,7495
260,44,female,18,12,active,0,women,36,0,6.0,-6.0,-1.0,0,True,False,9816
261,44,female,18,12,active,0,women,37,7,7.0,7.0,1.0,0,True,True,6876
262,44,female,18,12,active,0,women,38,1,6.0,-6.0,-2.0,0,False,False,8995
263,44,female,18,12,active,0,women,39,7,6.0,6.0,-1.0,0,True,False,2388
264,44,female,18,12,active,0,women,40,3,4.0,-4.0,-1.0,0,True,False,1726
265,44,female,18,12,active,0,women,41,1,2.0,-2.0,-2.0,1,False,False,2625
266,44,female,18,12,active,0,women,42,4,3.0,3.0,1.0,0,True,True,6666
267,44,female,18,12,active,0,women,43,3,1.0,-1.0,-1.0,1,True,False,2600
268,44,female,18,12,active,0,women,44,7,4.0,4.0,1.0,0,True,True,1814
269,44,female,18,12,active,0,women,45,0,7.0,-7.0,-2.0,0,False,False,1952
270,44,female,18,12,active,0,women,46,2,2.0,2.0,2.0,1,False,False,10510
271,44,female,18,12,active,0,women,47,0,2.0,-2.0,-2.0,1,False,False,2129
272,44,female,18,12,active,0,women,48,1,1.0,1.0,1.0,1,True,True,1063
273,44,female,18,12,active,0,women,49,2,1.0,1.0,1.0,1,True,True,7701
274,44,female,18,12,active,0,women,50,1,1.0,-1.0,-1.0,1,True,False,2939
275,44,female,18,12,active,0,women,51,6,5.0,5.0,2.0,0,False,False,1465
276,44,female,18,12,active,0,women,52,3,3.0,-3.0,1.0,0,True,True,2602
277,44,female,18,12,active,0,women,53,7,4.0,4.0,1.0,0,True,True,2131
278,44,female,18,12,active,0,women,54,0,7.0,-7.0,-1.0,0,True,False,4267
279,44,female,18,12,active,0,women,55,5,5.0,5.0,1.0,0,True,True,3030
280,44,female,18,12,yoked,1,men,0,5,,,,0,,,6088
281,44,female,18,12,yoked,1,men,1,2,3.0,-3.0,-1.0,0,True,False,4089
282,44,female,18,12,yoked,1,men,2,0,2.0,-2.0,-2.0,1,False,False,5078
283,44,female,18,12,yoked,1,men,3,7,7.0,7.0,1.0,0,True,True,1432
284,44,female,18,12,yoked,1,men,4,4,3.0,-3.0,-1.0,0,True,False,2500
285,44,female,18,12,yoked,1,men,5,0,4.0,-4.0,-1.0,0,True,False,3976
286,44,female,18,12,yoked,1,men,6,2,2.0,2.0,2.0,1,False,False,4425
287,44,female,18,12,yoked,1,men,7,5,3.0,3.0,2.0,0,False,False,3065
288,44,female,18,12,yoked,1,men,8,7,2.0,2.0,2.0,1,False,False,1185
289,44,female,18,12,yoked,1,men,9,2,5.0,-5.0,-1.0,0,True,False,9374
290,44,female,18,12,yoked,1,men,10,5,3.0,3.0,2.0,0,False,False,4628
291,44,female,18,12,yoked,1,men,11,1,4.0,-4.0,-2.0,0,False,False,3153
292,44,female,18,12,yoked,1,men,12,2,1.0,1.0,1.0,1,True,True,3605
293,44,female,18,12,yoked,1,men,13,0,2.0,-2.0,-2.0,1,False,False,6271
294,44,female,18,12,yoked,1,men,14,7,7.0,7.0,1.0,0,True,True,2098
295,44,female,18,12,yoked,1,men,15,4,3.0,-3.0,-2.0,0,False,False,3108
296,44,female,18,12,yoked,1,men,16,7,3.0,3.0,2.0,0,False,False,1399
297,44,female,18,12,yoked,1,men,17,3,4.0,-4.0,-1.0,0,True,False,5475
298,44,female,18,12,yoked,1,men,18,5,2.0,2.0,2.0,1,False,False,10049
299,44,female,18,12,yoked,1,men,19,7,2.0,2.0,2.0,1,False,False,2085
300,44,female,18,12,yoked,1,men,20,5,2.0,-2.0,-2.0,1,False,False,7189
301,44,female,18,12,yoked,1,men,21,0,5.0,-5.0,-1.0,0,True,False,2906
302,44,female,18,12,yoked,1,men,22,1,1.0,1.0,1.0,1,True,True,4290
303,44,female,18,12,yoked,1,men,23,2,1.0,1.0,1.0,1,True,True,1984
304,44,female,18,12,yoked,1,men,24,3,1.0,1.0,1.0,1,True,True,2254
305,44,female,18,12,yoked,1,men,25,6,3.0,3.0,1.0,0,True,True,2929
306,44,female,18,12,yoked,1,men,26,2,4.0,-4.0,1.0,0,True,True,5942
307,44,female,18,12,yoked,1,men,27,6,4.0,4.0,-1.0,0,True,False,3615
308,44,female,18,12,yoked,1,men,28,3,3.0,-3.0,1.0,0,True,True,1972
309,44,female,18,12,yoked,1,men,29,2,1.0,-1.0,-1.0,1,True,False,5877
310,44,female,18,12,yoked,1,men,30,6,4.0,4.0,1.0,0,True,True,4360
311,44,female,18,12,yoked,1,men,31,7,1.0,1.0,1.0,1,True,True,20817
312,44,female,18,12,yoked,1,men,32,3,4.0,-4.0,-1.0,0,True,False,2185
313,44,female,18,12,yoked,1,men,33,2,1.0,-1.0,-1.0,1,True,False,8341
314,44,female,18,12,yoked,1,men,34,3,1.0,1.0,1.0,1,True,True,2964
315,44,female,18,12,yoked,1,men,35,1,2.0,-2.0,-2.0,1,False,False,1432
316,44,female,18,12,yoked,1,men,36,0,1.0,-1.0,-1.0,1,True,False,2287
317,44,female,18,12,yoked,1,men,37,2,2.0,2.0,2.0,1,False,False,1051
318,44,female,18,12,yoked,1,men,38,5,3.0,3.0,-2.0,0,False,False,1570
319,44,female,18,12,yoked,1,men,39,1,4.0,-4.0,-2.0,0,False,False,2140
320,44,female,18,12,yoked,1,men,40,0,1.0,-1.0,-1.0,1,True,False,1691
321,44,female,18,12,yoked,1,men,41,2,2.0,2.0,2.0,1,False,False,1682
322,44,female,18,12,yoked,1,men,42,3,1.0,1.0,1.0,1,True,True,1072
323,44,female,18,12,yoked,1,men,43,2,1.0,-1.0,-1.0,1,True,False,5338
324,44,female,18,12,yoked,1,men,44,7,5.0,5.0,-1.0,0,True,False,1860
325,44,female,18,12,yoked,1,men,45,5,2.0,-2.0,-2.0,1,False,False,2987
326,44,female,18,12,yoked,1,men,46,7,2.0,2.0,2.0,1,False,False,2410
327,44,female,18,12,yoked,1,men,47,3,4.0,-4.0,-2.0,0,False,False,1219
328,44,female,18,12,yoked,1,men,48,2,1.0,-1.0,-1.0,1,True,False,2490
329,44,female,18,12,yoked,1,men,49,4,2.0,2.0,2.0,1,False,False,2523
330,44,female,18,12,yoked,1,men,50,2,2.0,-2.0,-2.0,1,False,False,11625
331,44,female,18,12,yoked,1,men,51,6,4.0,4.0,-1.0,0,True,False,3119
332,44,female,18,12,yoked,1,men,52,0,6.0,-6.0,-2.0,0,False,False,5191
333,44,female,18,12,yoked,1,men,53,6,6.0,6.0,1.0,0,True,True,1725
334,44,female,18,12,yoked,1,men,54,2,4.0,-4.0,1.0,0,True,True,3268
335,44,female,18,12,yoked,1,men,55,5,3.0,3.0,1.0,0,True,True,3726
336,45,female,20,8,active,0,men,0,4,,,,0,,,3696
337,45,female,20,8,active,0,men,1,6,2.0,2.0,2.0,1,False,False,5842
338,45,female,20,8,active,0,men,2,0,6.0,-6.0,-1.0,0,True,False,2862
339,45,female,20,8,active,0,men,3,2,2.0,2.0,2.0,1,False,False,3411
340,45,female,20,8,active,0,men,4,1,1.0,-1.0,-1.0,1,True,False,2217
341,45,female,20,8,active,0,men,5,4,3.0,3.0,-1.0,0,True,False,3659
342,45,female,20,8,active,0,men,6,5,1.0,1.0,1.0,1,True,True,1251
343,45,female,20,8,active,0,men,7,7,2.0,2.0,2.0,1,False,False,2039
344,45,female,20,8,active,0,men,8,6,1.0,-1.0,-1.0,1,True,False,1892
345,45,female,20,8,active,0,men,9,3,3.0,-3.0,-1.0,0,True,False,2187
346,45,female,20,8,active,0,men,10,5,2.0,2.0,2.0,1,False,False,3333
347,45,female,20,8,active,0,men,11,4,1.0,-1.0,-1.0,1,True,False,1669
348,45,female,20,8,active,0,men,12,0,4.0,-4.0,2.0,0,False,False,3256
349,45,female,20,8,active,0,men,13,1,1.0,1.0,1.0,1,True,True,1746
350,45,female,20,8,active,0,men,14,6,5.0,5.0,1.0,0,True,True,2886
351,45,female,20,8,active,0,men,15,4,2.0,-2.0,-2.0,1,False,False,1308
352,45,female,20,8,active,0,men,16,6,2.0,2.0,2.0,1,False,False,1793
353,45,female,20,8,active,0,men,17,2,4.0,-4.0,-1.0,0,True,False,2421
354,45,female,20,8,active,0,men,18,5,3.0,3.0,2.0,0,False,False,3436
355,45,female,20,8,active,0,men,19,3,2.0,-2.0,-2.0,1,False,False,3930
356,45,female,20,8,active,0,men,20,1,2.0,-2.0,-2.0,1,False,False,2669
357,45,female,20,8,active,0,men,21,2,1.0,1.0,1.0,1,True,True,2548
358,45,female,20,8,active,0,men,22,3,1.0,1.0,1.0,1,True,True,1476
359,45,female,20,8,active,0,men,23,6,3.0,3.0,-2.0,0,False,False,7057
360,45,female,20,8,active,0,men,24,0,6.0,-6.0,-1.0,0,True,False,1680
361,45,female,20,8,active,0,men,25,6,6.0,6.0,1.0,0,True,True,3909
362,45,female,20,8,active,0,men,26,2,4.0,-4.0,-2.0,0,False,False,1813
363,45,female,20,8,active,0,men,27,6,4.0,4.0,2.0,0,False,False,1490
364,45,female,20,8,active,0,men,28,0,6.0,-6.0,-2.0,0,False,False,3176
365,45,female,20,8,active,0,men,29,1,1.0,1.0,1.0,1,True,True,1669
366,45,female,20,8,active,0,men,30,0,1.0,-1.0,-1.0,1,True,False,2985
367,45,female,20,8,active,0,men,31,7,7.0,7.0,2.0,0,False,False,2434
368,45,female,20,8,active,0,men,32,2,5.0,-5.0,-2.0,0,False,False,3424
369,45,female,20,8,active,0,men,33,1,1.0,-1.0,-1.0,1,True,False,1994
370,45,female,20,8,active,0,men,34,5,4.0,4.0,1.0,0,True,True,2029
371,45,female,20,8,active,0,men,35,0,5.0,-5.0,1.0,0,True,True,1748
372,45,female,20,8,active,0,men,36,2,2.0,2.0,2.0,1,False,False,1510
373,45,female,20,8,active,0,men,37,0,2.0,-2.0,-2.0,1,False,False,1904
374,45,female,20,8,active,0,men,38,5,5.0,5.0,2.0,0,False,False,1680
375,45,female,20,8,active,0,men,39,4,1.0,-1.0,-1.0,1,True,False,2488
376,45,female,20,8,active,0,men,40,6,2.0,2.0,2.0,1,False,False,983
377,45,female,20,8,active,0,men,41,5,1.0,-1.0,-1.0,1,True,False,2106
378,45,female,20,8,active,0,men,42,7,2.0,2.0,2.0,1,False,False,1914
379,45,female,20,8,active,0,men,43,0,7.0,-7.0,-1.0,0,True,False,3391
380,45,female,20,8,active,0,men,44,2,2.0,2.0,2.0,1,False,False,1882
381,45,female,20,8,active,0,men,45,6,4.0,4.0,1.0,0,True,True,2870
382,45,female,20,8,active,0,men,46,5,1.0,-1.0,-1.0,1,True,False,2872
383,45,female,20,8,active,0,men,47,1,4.0,-4.0,-1.0,0,True,False,1018
384,45,female,20,8,active,0,men,48,4,3.0,3.0,1.0,0,True,True,2009
385,45,female,20,8,active,0,men,49,1,3.0,-3.0,2.0,0,False,False,2704
386,45,female,20,8,active,0,men,50,5,4.0,4.0,1.0,0,True,True,948
387,45,female,20,8,active,0,men,51,7,2.0,2.0,2.0,1,False,False,1961
388,45,female,20,8,active,0,men,52,2,5.0,-5.0,-2.0,0,False,False,838
389,45,female,20,8,active,0,men,53,0,2.0,-2.0,-2.0,1,False,False,1824
390,45,female,20,8,active,0,men,54,1,1.0,1.0,1.0,1,True,True,1253
391,45,female,20,8,active,0,men,55,5,4.0,4.0,1.0,0,True,True,1633
392,45,female,20,8,yoked,1,women,0,3,,,,0,,,6708
393,45,female,20,8,yoked,1,women,1,6,3.0,3.0,-1.0,0,True,False,3593
394,45,female,20,8,yoked,1,women,2,7,1.0,1.0,1.0,1,True,True,1510
395,45,female,20,8,yoked,1,women,3,0,7.0,-7.0,-1.0,0,True,False,4965
396,45,female,20,8,yoked,1,women,4,4,4.0,4.0,2.0,0,False,False,4514
397,45,female,20,8,yoked,1,women,5,7,3.0,3.0,-2.0,0,False,False,2277
398,45,female,20,8,yoked,1,women,6,6,1.0,-1.0,-1.0,1,True,False,2142
399,45,female,20,8,yoked,1,women,7,4,2.0,-2.0,-2.0,1,False,False,1230
400,45,female,20,8,yoked,1,women,8,6,2.0,2.0,2.0,1,False,False,4964
401,45,female,20,8,yoked,1,women,9,0,6.0,-6.0,-2.0,0,False,False,1524
402,45,female,20,8,yoked,1,women,10,1,1.0,1.0,1.0,1,True,True,1151
403,45,female,20,8,yoked,1,women,11,6,5.0,5.0,1.0,0,True,True,1443
404,45,female,20,8,yoked,1,women,12,0,6.0,-6.0,1.0,0,True,True,4864
405,45,female,20,8,yoked,1,women,13,2,2.0,2.0,2.0,1,False,False,1704
406,45,female,20,8,yoked,1,women,14,5,3.0,3.0,-2.0,0,False,False,1623
407,45,female,20,8,yoked,1,women,15,3,2.0,-2.0,-2.0,1,False,False,1208
408,45,female,20,8,yoked,1,women,16,6,3.0,3.0,1.0,0,True,True,1130
409,45,female,20,8,yoked,1,women,17,7,1.0,1.0,1.0,1,True,True,1364
410,45,female,20,8,yoked,1,women,18,0,7.0,-7.0,-2.0,0,False,False,2289
411,45,female,20,8,yoked,1,women,19,7,7.0,7.0,2.0,0,False,False,3019
412,45,female,20,8,yoked,1,women,20,6,1.0,-1.0,-1.0,1,True,False,1128
413,45,female,20,8,yoked,1,women,21,1,5.0,-5.0,1.0,0,True,True,5562
414,45,female,20,8,yoked,1,women,22,2,1.0,1.0,1.0,1,True,True,1039
415,45,female,20,8,yoked,1,women,23,6,4.0,4.0,-2.0,0,False,False,1781
416,45,female,20,8,yoked,1,women,24,7,1.0,1.0,1.0,1,True,True,1354
417,45,female,20,8,yoked,1,women,25,4,3.0,-3.0,-2.0,0,False,False,1534
418,45,female,20,8,yoked,1,women,26,1,3.0,-3.0,-2.0,0,False,False,4998
419,45,female,20,8,yoked,1,women,27,6,5.0,5.0,2.0,0,False,False,2342
420,45,female,20,8,yoked,1,women,28,0,6.0,-6.0,1.0,0,True,True,2942
421,45,female,20,8,yoked,1,women,29,5,5.0,5.0,2.0,0,False,False,1319
422,45,female,20,8,yoked,1,women,30,7,2.0,2.0,2.0,1,False,False,3244
423,45,female,20,8,yoked,1,women,31,6,1.0,-1.0,-1.0,1,True,False,3133
424,45,female,20,8,yoked,1,women,32,5,1.0,-1.0,-1.0,1,True,False,1127
425,45,female,20,8,yoked,1,women,33,6,1.0,1.0,1.0,1,True,True,9905
426,45,female,20,8,yoked,1,women,34,4,2.0,-2.0,-2.0,1,False,False,1510
427,45,female,20,8,yoked,1,women,35,5,1.0,1.0,1.0,1,True,True,1883
428,45,female,20,8,yoked,1,women,36,4,1.0,-1.0,-1.0,1,True,False,1592
429,45,female,20,8,yoked,1,women,37,5,1.0,1.0,1.0,1,True,True,1048
430,45,female,20,8,yoked,1,women,38,2,3.0,-3.0,2.0,0,False,False,1625
431,45,female,20,8,yoked,1,women,39,7,5.0,5.0,2.0,0,False,False,1073
432,45,female,20,8,yoked,1,women,40,1,6.0,-6.0,-2.0,0,False,False,1477
433,45,female,20,8,yoked,1,women,41,0,1.0,-1.0,-1.0,1,True,False,1477
434,45,female,20,8,yoked,1,women,42,2,2.0,2.0,2.0,1,False,False,2186
435,45,female,20,8,yoked,1,women,43,5,3.0,3.0,-2.0,0,False,False,1435
436,45,female,20,8,yoked,1,women,44,1,4.0,-4.0,-2.0,0,False,False,2455
437,45,female,20,8,yoked,1,women,45,6,5.0,5.0,-1.0,0,True,False,1230
438,45,female,20,8,yoked,1,women,46,3,3.0,-3.0,-2.0,0,False,False,1029
439,45,female,20,8,yoked,1,women,47,2,1.0,-1.0,-1.0,1,True,False,1667
440,45,female,20,8,yoked,1,women,48,5,3.0,3.0,-1.0,0,True,False,1163
441,45,female,20,8,yoked,1,women,49,6,1.0,1.0,1.0,1,True,True,1210
442,45,female,20,8,yoked,1,women,50,5,1.0,-1.0,-1.0,1,True,False,3456
443,45,female,20,8,yoked,1,women,51,0,5.0,-5.0,-2.0,0,False,False,1444
444,45,female,20,8,yoked,1,women,52,2,2.0,2.0,2.0,1,False,False,1949
445,45,female,20,8,yoked,1,women,53,3,1.0,1.0,1.0,1,True,True,1038
446,45,female,20,8,yoked,1,women,54,6,3.0,3.0,-1.0,0,True,False,1523
447,45,female,20,8,yoked,1,women,55,7,1.0,1.0,1.0,1,True,True,1309
448,46,male,18,11,active,0,women,0,6,,,,0,,,5199
449,46,male,18,11,active,0,women,1,4,2.0,-2.0,-2.0,1,False,False,7508
450,46,male,18,11,active,0,women,2,6,2.0,2.0,2.0,1,False,False,5255
451,46,male,18,11,active,0,women,3,5,1.0,-1.0,-1.0,1,True,False,4896
452,46,male,18,11,active,0,women,4,3,2.0,-2.0,-2.0,1,False,False,4255
453,46,male,18,11,active,0,women,5,1,2.0,-2.0,-2.0,1,False,False,10565
454,46,male,18,11,active,0,women,6,5,4.0,4.0,-1.0,0,True,False,1611
455,46,male,18,11,active,0,women,7,3,2.0,-2.0,-2.0,1,False,False,2086
456,46,male,18,11,active,0,women,8,6,3.0,3.0,-1.0,0,True,False,2884
457,46,male,18,11,active,0,women,9,7,1.0,1.0,1.0,1,True,True,2197
458,46,male,18,11,active,0,women,10,2,5.0,-5.0,-1.0,0,True,False,2288
459,46,male,18,11,active,0,women,11,1,1.0,-1.0,-1.0,1,True,False,4910
460,46,male,18,11,active,0,women,12,2,1.0,1.0,1.0,1,True,True,1331
461,46,male,18,11,active,0,women,13,0,2.0,-2.0,-2.0,1,False,False,1656
462,46,male,18,11,active,0,women,14,2,2.0,2.0,2.0,1,False,False,3997
463,46,male,18,11,active,0,women,15,0,2.0,-2.0,-2.0,1,False,False,2852
464,46,male,18,11,active,0,women,16,1,1.0,1.0,1.0,1,True,True,2052
465,46,male,18,11,active,0,women,17,2,1.0,1.0,1.0,1,True,True,2727
466,46,male,18,11,active,0,women,18,7,5.0,5.0,-1.0,0,True,False,1690
467,46,male,18,11,active,0,women,19,6,1.0,-1.0,-1.0,1,True,False,2232
468,46,male,18,11,active,0,women,20,7,1.0,1.0,1.0,1,True,True,1308
469,46,male,18,11,active,0,women,21,6,1.0,-1.0,-1.0,1,True,False,1759
470,46,male,18,11,active,0,women,22,5,1.0,-1.0,-1.0,1,True,False,1929
471,46,male,18,11,active,0,women,23,0,5.0,-5.0,2.0,0,False,False,1568
472,46,male,18,11,active,0,women,24,3,3.0,3.0,1.0,0,True,True,2096
473,46,male,18,11,active,0,women,25,4,1.0,1.0,1.0,1,True,True,2140
474,46,male,18,11,active,0,women,26,1,3.0,-3.0,-2.0,0,False,False,2097
475,46,male,18,11,active,0,women,27,4,3.0,3.0,-1.0,0,True,False,1488
476,46,male,18,11,active,0,women,28,7,3.0,3.0,2.0,0,False,False,1816
477,46,male,18,11,active,0,women,29,1,6.0,-6.0,-2.0,0,False,False,1512
478,46,male,18,11,active,0,women,30,2,1.0,1.0,1.0,1,True,True,1971
479,46,male,18,11,active,0,women,31,7,5.0,5.0,2.0,0,False,False,2176
480,46,male,18,11,active,0,women,32,6,1.0,-1.0,-1.0,1,True,False,2366
481,46,male,18,11,active,0,women,33,0,6.0,-6.0,1.0,0,True,True,9644
482,46,male,18,11,active,0,women,34,4,4.0,4.0,2.0,0,False,False,2537
483,46,male,18,11,active,0,women,35,6,2.0,2.0,2.0,1,False,False,2005
484,46,male,18,11,active,0,women,36,7,1.0,1.0,1.0,1,True,True,2322
485,46,male,18,11,active,0,women,37,2,5.0,-5.0,-1.0,0,True,False,2212
486,46,male,18,11,active,0,women,38,5,3.0,3.0,2.0,0,False,False,5954
487,46,male,18,11,active,0,women,39,3,2.0,-2.0,-2.0,1,False,False,1433
488,46,male,18,11,active,0,women,40,5,2.0,2.0,2.0,1,False,False,2197
489,46,male,18,11,active,0,women,41,4,1.0,-1.0,-1.0,1,True,False,1973
490,46,male,18,11,active,0,women,42,6,2.0,2.0,2.0,1,False,False,4516
491,46,male,18,11,active,0,women,43,7,1.0,1.0,1.0,1,True,True,1578
492,46,male,18,11,active,0,women,44,4,3.0,-3.0,-1.0,0,True,False,2895
493,46,male,18,11,active,0,women,45,7,3.0,3.0,-2.0,0,False,False,2050
494,46,male,18,11,active,0,women,46,0,7.0,-7.0,-1.0,0,True,False,1411
495,46,male,18,11,active,0,women,47,2,2.0,2.0,2.0,1,False,False,2826
496,46,male,18,11,active,0,women,48,3,1.0,1.0,1.0,1,True,True,2320
497,46,male,18,11,active,0,women,49,2,1.0,-1.0,-1.0,1,True,False,2615
498,46,male,18,11,active,0,women,50,3,1.0,1.0,1.0,1,True,True,1870
499,46,male,18,11,active,0,women,51,1,2.0,-2.0,-2.0,1,False,False,2738
500,46,male,18,11,active,0,women,52,5,4.0,4.0,2.0,0,False,False,1218
501,46,male,18,11,active,0,women,53,6,1.0,1.0,1.0,1,True,True,1500
502,46,male,18,11,active,0,women,54,2,4.0,-4.0,-2.0,0,False,False,2018
503,46,male,18,11,active,0,women,55,7,5.0,5.0,-2.0,0,False,False,1780
504,46,male,18,11,yoked,1,men,0,1,,,,0,,,755
505,46,male,18,11,yoked,1,men,1,0,1.0,-1.0,-1.0,1,True,False,3144
506,46,male,18,11,yoked,1,men,2,4,4.0,4.0,1.0,0,True,True,1184
507,46,male,18,11,yoked,1,men,3,6,2.0,2.0,2.0,1,False,False,1827
508,46,male,18,11,yoked,1,men,4,5,1.0,-1.0,-1.0,1,True,False,1005
509,46,male,18,11,yoked,1,men,5,2,3.0,-3.0,1.0,0,True,True,2681
510,46,male,18,11,yoked,1,men,6,1,1.0,-1.0,-1.0,1,True,False,1354
511,46,male,18,11,yoked,1,men,7,7,6.0,6.0,2.0,0,False,False,879
512,46,male,18,11,yoked,1,men,8,6,1.0,-1.0,-1.0,1,True,False,1286
513,46,male,18,11,yoked,1,men,9,1,5.0,-5.0,-2.0,0,False,False,1725
514,46,male,18,11,yoked,1,men,10,7,6.0,6.0,1.0,0,True,True,868
515,46,male,18,11,yoked,1,men,11,0,7.0,-7.0,-2.0,0,False,False,1208
516,46,male,18,11,yoked,1,men,12,2,2.0,2.0,2.0,1,False,False,1242
517,46,male,18,11,yoked,1,men,13,7,5.0,5.0,-1.0,0,True,False,1273
518,46,male,18,11,yoked,1,men,14,5,2.0,-2.0,-2.0,1,False,False,994
519,46,male,18,11,yoked,1,men,15,7,2.0,2.0,2.0,1,False,False,961
520,46,male,18,11,yoked,1,men,16,0,7.0,-7.0,-1.0,0,True,False,1567
521,46,male,18,11,yoked,1,men,17,2,2.0,2.0,2.0,1,False,False,1005
522,46,male,18,11,yoked,1,men,18,3,1.0,1.0,1.0,1,True,True,1626
523,46,male,18,11,yoked,1,men,19,1,2.0,-2.0,-2.0,1,False,False,1118
524,46,male,18,11,yoked,1,men,20,2,1.0,1.0,1.0,1,True,True,1073
525,46,male,18,11,yoked,1,men,21,5,3.0,3.0,-1.0,0,True,False,871
526,46,male,18,11,yoked,1,men,22,4,1.0,-1.0,-1.0,1,True,False,703
527,46,male,18,11,yoked,1,men,23,5,1.0,1.0,1.0,1,True,True,972
528,46,male,18,11,yoked,1,men,24,0,5.0,-5.0,-2.0,0,False,False,725
529,46,male,18,11,yoked,1,men,25,3,3.0,3.0,1.0,0,True,True,714
530,46,male,18,11,yoked,1,men,26,6,3.0,3.0,-1.0,0,True,False,1266
531,46,male,18,11,yoked,1,men,27,2,4.0,-4.0,-2.0,0,False,False,6404
532,46,male,18,11,yoked,1,men,28,7,5.0,5.0,-2.0,0,False,False,1737
533,46,male,18,11,yoked,1,men,29,3,4.0,-4.0,-1.0,0,True,False,1196
534,46,male,18,11,yoked,1,men,30,0,3.0,-3.0,-1.0,0,True,False,1669
535,46,male,18,11,yoked,1,men,31,1,1.0,1.0,1.0,1,True,True,1253
536,46,male,18,11,yoked,1,men,32,7,6.0,6.0,1.0,0,True,True,2839
537,46,male,18,11,yoked,1,men,33,5,2.0,-2.0,-2.0,1,False,False,3155
538,46,male,18,11,yoked,1,men,34,3,2.0,-2.0,-2.0,1,False,False,1287
539,46,male,18,11,yoked,1,men,35,0,3.0,-3.0,-2.0,0,False,False,1128
540,46,male,18,11,yoked,1,men,36,7,7.0,7.0,2.0,0,False,False,1702
541,46,male,18,11,yoked,1,men,37,5,2.0,-2.0,-2.0,1,False,False,1343
542,46,male,18,11,yoked,1,men,38,7,2.0,2.0,2.0,1,False,False,948
543,46,male,18,11,yoked,1,men,39,6,1.0,-1.0,-1.0,1,True,False,1332
544,46,male,18,11,yoked,1,men,40,5,1.0,-1.0,-1.0,1,True,False,1308
545,46,male,18,11,yoked,1,men,41,1,4.0,-4.0,1.0,0,True,True,938
546,46,male,18,11,yoked,1,men,42,4,3.0,3.0,-1.0,0,True,False,1319
547,46,male,18,11,yoked,1,men,43,0,4.0,-4.0,-1.0,0,True,False,7508
548,46,male,18,11,yoked,1,men,44,1,1.0,1.0,1.0,1,True,True,2974
549,46,male,18,11,yoked,1,men,45,0,1.0,-1.0,-1.0,1,True,False,2624
550,46,male,18,11,yoked,1,men,46,7,7.0,7.0,1.0,0,True,True,1039
551,46,male,18,11,yoked,1,men,47,4,3.0,-3.0,-1.0,0,True,False,1547
552,46,male,18,11,yoked,1,men,48,6,2.0,2.0,2.0,1,False,False,1746
553,46,male,18,11,yoked,1,men,49,0,6.0,-6.0,-1.0,0,True,False,1456
554,46,male,18,11,yoked,1,men,50,1,1.0,1.0,1.0,1,True,True,1726
555,46,male,18,11,yoked,1,men,51,3,2.0,2.0,2.0,1,False,False,928
556,46,male,18,11,yoked,1,men,52,2,1.0,-1.0,-1.0,1,True,False,1769
557,46,male,18,11,yoked,1,men,53,6,4.0,4.0,1.0,0,True,True,1455
558,46,male,18,11,yoked,1,men,54,2,4.0,-4.0,1.0,0,True,True,1794
559,46,male,18,11,yoked,1,men,55,7,5.0,5.0,1.0,0,True,True,1296
560,47,female,21,55,active,1,women,0,0,,,,0,,,3040
561,47,female,21,55,active,1,women,1,6,6.0,6.0,2.0,0,False,False,3885
562,47,female,21,55,active,1,women,2,0,6.0,-6.0,-2.0,0,False,False,2052
563,47,female,21,55,active,1,women,3,2,2.0,2.0,2.0,1,False,False,3795
564,47,female,21,55,active,1,women,4,5,3.0,3.0,-2.0,0,False,False,1635
565,47,female,21,55,active,1,women,5,0,5.0,-5.0,2.0,0,False,False,1850
566,47,female,21,55,active,1,women,6,4,4.0,4.0,1.0,0,True,True,2884
567,47,female,21,55,active,1,women,7,1,3.0,-3.0,1.0,0,True,True,1962
568,47,female,21,55,active,1,women,8,3,2.0,2.0,2.0,1,False,False,1985
569,47,female,21,55,active,1,women,9,4,1.0,1.0,1.0,1,True,True,1545
570,47,female,21,55,active,1,women,10,2,2.0,-2.0,-2.0,1,False,False,2841
571,47,female,21,55,active,1,women,11,3,1.0,1.0,1.0,1,True,True,2130
572,47,female,21,55,active,1,women,12,7,4.0,4.0,-2.0,0,False,False,3684
573,47,female,21,55,active,1,women,13,0,7.0,-7.0,-1.0,0,True,False,1793
574,47,female,21,55,active,1,women,14,1,1.0,1.0,1.0,1,True,True,1309
575,47,female,21,55,active,1,women,15,5,4.0,4.0,-1.0,0,True,False,11064
576,47,female,21,55,active,1,women,16,1,4.0,-4.0,2.0,0,False,False,2310
577,47,female,21,55,active,1,women,17,4,3.0,3.0,-1.0,0,True,False,1725
578,47,female,21,55,active,1,women,18,0,4.0,-4.0,2.0,0,False,False,2366
579,47,female,21,55,active,1,women,19,3,3.0,3.0,2.0,0,False,False,2435
580,47,female,21,55,active,1,women,20,4,1.0,1.0,1.0,1,True,True,1454
581,47,female,21,55,active,1,women,21,1,3.0,-3.0,-2.0,0,False,False,8544
582,47,female,21,55,active,1,women,22,2,1.0,1.0,1.0,1,True,True,1666
583,47,female,21,55,active,1,women,23,4,2.0,2.0,2.0,1,False,False,2919
584,47,female,21,55,active,1,women,24,5,1.0,1.0,1.0,1,True,True,803
585,47,female,21,55,active,1,women,25,4,1.0,-1.0,-1.0,1,True,False,7125
586,47,female,21,55,active,1,women,26,1,3.0,-3.0,-2.0,0,False,False,20851
587,47,female,21,55,active,1,women,27,5,4.0,4.0,1.0,0,True,True,2738
588,47,female,21,55,active,1,women,28,0,5.0,-5.0,-2.0,0,False,False,4054
589,47,female,21,55,active,1,women,29,2,2.0,2.0,2.0,1,False,False,8081
590,47,female,21,55,active,1,women,30,7,5.0,5.0,1.0,0,True,True,3851
591,47,female,21,55,active,1,women,31,6,1.0,-1.0,-1.0,1,True,False,2580
592,47,female,21,55,active,1,women,32,7,1.0,1.0,1.0,1,True,True,1174
593,47,female,21,55,active,1,women,33,6,1.0,-1.0,-1.0,1,True,False,1219
594,47,female,21,55,active,1,women,34,1,5.0,-5.0,1.0,0,True,True,1051
595,47,female,21,55,active,1,women,35,7,6.0,6.0,-1.0,0,True,False,35161
596,47,female,21,55,active,1,women,36,6,1.0,-1.0,-1.0,1,True,False,5055
597,47,female,21,55,active,1,women,37,1,5.0,-5.0,-1.0,0,True,False,1434
598,47,female,21,55,active,1,women,38,4,3.0,3.0,-1.0,0,True,False,2412
599,47,female,21,55,active,1,women,39,5,1.0,1.0,1.0,1,True,True,3604
600,47,female,21,55,active,1,women,40,0,5.0,-5.0,-2.0,0,False,False,16002
601,47,female,21,55,active,1,women,41,3,3.0,3.0,2.0,0,False,False,10792
602,47,female,21,55,active,1,women,42,6,3.0,3.0,-1.0,0,True,False,11401
603,47,female,21,55,active,1,women,43,0,6.0,-6.0,-2.0,0,False,False,1419
604,47,female,21,55,active,1,women,44,1,1.0,1.0,1.0,1,True,True,12144
605,47,female,21,55,active,1,women,45,0,1.0,-1.0,-1.0,1,True,False,3827
606,47,female,21,55,active,1,women,46,5,5.0,5.0,2.0,0,False,False,3716
607,47,female,21,55,active,1,women,47,3,2.0,-2.0,-2.0,1,False,False,3988
608,47,female,21,55,active,1,women,48,0,3.0,-3.0,-2.0,0,False,False,6742
609,47,female,21,55,active,1,women,49,7,7.0,7.0,1.0,0,True,True,4773
610,47,female,21,55,active,1,women,50,5,2.0,-2.0,-2.0,1,False,False,15473
611,47,female,21,55,active,1,women,51,6,1.0,1.0,1.0,1,True,True,6269
612,47,female,21,55,active,1,women,52,5,1.0,-1.0,-1.0,1,True,False,7597
613,47,female,21,55,active,1,women,53,1,4.0,-4.0,-2.0,0,False,False,9308
614,47,female,21,55,active,1,women,54,7,6.0,6.0,2.0,0,False,False,6390
615,47,female,21,55,active,1,women,55,5,2.0,-2.0,-2.0,1,False,False,13956
616,47,female,21,55,yoked,0,men,0,2,,,,0,,,5072
617,47,female,21,55,yoked,0,men,1,6,4.0,4.0,2.0,0,False,False,2939
618,47,female,21,55,yoked,0,men,2,5,1.0,-1.0,-1.0,1,True,False,2491
619,47,female,21,55,yoked,0,men,3,3,2.0,-2.0,-2.0,1,False,False,1309
620,47,female,21,55,yoked,0,men,4,2,1.0,-1.0,-1.0,1,True,False,1499
621,47,female,21,55,yoked,0,men,5,7,5.0,5.0,-2.0,0,False,False,1163
622,47,female,21,55,yoked,0,men,6,5,2.0,-2.0,-2.0,1,False,False,950
623,47,female,21,55,yoked,0,men,7,7,2.0,2.0,2.0,1,False,False,1117
624,47,female,21,55,yoked,0,men,8,3,4.0,-4.0,-1.0,0,True,False,1600
625,47,female,21,55,yoked,0,men,9,6,3.0,3.0,-2.0,0,False,False,802
626,47,female,21,55,yoked,0,men,10,7,1.0,1.0,1.0,1,True,True,1240
627,47,female,21,55,yoked,0,men,11,5,2.0,-2.0,-2.0,1,False,False,1331
628,47,female,21,55,yoked,0,men,12,3,2.0,-2.0,-2.0,1,False,False,1107
629,47,female,21,55,yoked,0,men,13,6,3.0,3.0,-1.0,0,True,False,5584
630,47,female,21,55,yoked,0,men,14,3,3.0,-3.0,1.0,0,True,True,2725
631,47,female,21,55,yoked,0,men,15,6,3.0,3.0,-1.0,0,True,False,1645
632,47,female,21,55,yoked,0,men,16,1,5.0,-5.0,1.0,0,True,True,1208
633,47,female,21,55,yoked,0,men,17,6,5.0,5.0,1.0,0,True,True,1444
634,47,female,21,55,yoked,0,men,18,1,5.0,-5.0,1.0,0,True,True,1016
635,47,female,21,55,yoked,0,men,19,2,1.0,1.0,1.0,1,True,True,1287
636,47,female,21,55,yoked,0,men,20,3,1.0,1.0,1.0,1,True,True,1579
637,47,female,21,55,yoked,0,men,21,0,3.0,-3.0,1.0,0,True,True,2964
638,47,female,21,55,yoked,0,men,22,1,1.0,1.0,1.0,1,True,True,1758
639,47,female,21,55,yoked,0,men,23,2,1.0,1.0,1.0,1,True,True,1421
640,47,female,21,55,yoked,0,men,24,6,4.0,4.0,-1.0,0,True,False,2490
641,47,female,21,55,yoked,0,men,25,4,2.0,-2.0,-2.0,1,False,False,1511
642,47,female,21,55,yoked,0,men,26,1,3.0,-3.0,-2.0,0,False,False,3446
643,47,female,21,55,yoked,0,men,27,2,1.0,1.0,1.0,1,True,True,4605
644,47,female,21,55,yoked,0,men,28,7,5.0,5.0,-1.0,0,True,False,4290
645,47,female,21,55,yoked,0,men,29,2,5.0,-5.0,-2.0,0,False,False,2625
646,47,female,21,55,yoked,0,men,30,3,1.0,1.0,1.0,1,True,True,1681
647,47,female,21,55,yoked,0,men,31,0,3.0,-3.0,-2.0,0,False,False,2108
648,47,female,21,55,yoked,0,men,32,4,4.0,4.0,1.0,0,True,True,2793
649,47,female,21,55,yoked,0,men,33,3,1.0,-1.0,-1.0,1,True,False,2029
650,47,female,21,55,yoked,0,men,34,1,2.0,-2.0,-2.0,1,False,False,6529
651,47,female,21,55,yoked,0,men,35,4,3.0,3.0,-1.0,0,True,False,3368
652,47,female,21,55,yoked,0,men,36,3,1.0,-1.0,-1.0,1,True,False,2310
653,47,female,21,55,yoked,0,men,37,7,4.0,4.0,-2.0,0,False,False,1904
654,47,female,21,55,yoked,0,men,38,4,3.0,-3.0,-1.0,0,True,False,2569
655,47,female,21,55,yoked,0,men,39,1,3.0,-3.0,2.0,0,False,False,4954
656,47,female,21,55,yoked,0,men,40,6,5.0,5.0,-1.0,0,True,False,3346
657,47,female,21,55,yoked,0,men,41,1,5.0,-5.0,-2.0,0,False,False,1409
658,47,female,21,55,yoked,0,men,42,7,6.0,6.0,-1.0,0,True,False,5552
659,47,female,21,55,yoked,0,men,43,6,1.0,-1.0,-1.0,1,True,False,5842
660,47,female,21,55,yoked,0,men,44,0,6.0,-6.0,-1.0,0,True,False,2694
661,47,female,21,55,yoked,0,men,45,2,2.0,2.0,2.0,1,False,False,3909
662,47,female,21,55,yoked,0,men,46,7,5.0,5.0,1.0,0,True,True,2197
663,47,female,21,55,yoked,0,men,47,5,2.0,-2.0,-2.0,1,False,False,1963
664,47,female,21,55,yoked,0,men,48,6,1.0,1.0,1.0,1,True,True,881
665,47,female,21,55,yoked,0,men,49,3,3.0,-3.0,1.0,0,True,True,6744
666,47,female,21,55,yoked,0,men,50,5,2.0,2.0,2.0,1,False,False,6406
667,47,female,21,55,yoked,0,men,51,3,2.0,-2.0,-2.0,1,False,False,1907
668,47,female,21,55,yoked,0,men,52,4,1.0,1.0,1.0,1,True,True,2456
669,47,female,21,55,yoked,0,men,53,6,2.0,2.0,2.0,1,False,False,6203
670,47,female,21,55,yoked,0,men,54,2,4.0,-4.0,-1.0,0,True,False,2242
671,47,female,21,55,yoked,0,men,55,3,1.0,1.0,1.0,1,True,True,5979
672,48,female,18,11,active,1,men,0,2,,,,0,,,5863
673,48,female,18,11,active,1,men,1,4,2.0,2.0,2.0,1,False,False,10187
674,48,female,18,11,active,1,men,2,7,3.0,3.0,1.0,0,True,True,2960
675,48,female,18,11,active,1,men,3,2,5.0,-5.0,-2.0,0,False,False,1994
676,48,female,18,11,active,1,men,4,0,2.0,-2.0,-2.0,1,False,False,3751
677,48,female,18,11,active,1,men,5,2,2.0,2.0,2.0,1,False,False,4404
678,48,female,18,11,active,1,men,6,6,4.0,4.0,1.0,0,True,True,2140
679,48,female,18,11,active,1,men,7,4,2.0,-2.0,-2.0,1,False,False,2411
680,48,female,18,11,active,1,men,8,0,4.0,-4.0,-1.0,0,True,False,1298
681,48,female,18,11,active,1,men,9,1,1.0,1.0,1.0,1,True,True,1185
682,48,female,18,11,active,1,men,10,4,3.0,3.0,2.0,0,False,False,1768
683,48,female,18,11,active,1,men,11,7,3.0,3.0,1.0,0,True,True,2422
684,48,female,18,11,active,1,men,12,1,6.0,-6.0,-2.0,0,False,False,1307
685,48,female,18,11,active,1,men,13,6,5.0,5.0,2.0,0,False,False,1791
686,48,female,18,11,active,1,men,14,7,1.0,1.0,1.0,1,True,True,881
687,48,female,18,11,active,1,men,15,6,1.0,-1.0,-1.0,1,True,False,2852
688,48,female,18,11,active,1,men,16,5,1.0,-1.0,-1.0,1,True,False,6761
689,48,female,18,11,active,1,men,17,7,2.0,2.0,2.0,1,False,False,2094
690,48,female,18,11,active,1,men,18,3,4.0,-4.0,-1.0,0,True,False,1389
691,48,female,18,11,active,1,men,19,2,1.0,-1.0,-1.0,1,True,False,1366
692,48,female,18,11,active,1,men,20,6,4.0,4.0,1.0,0,True,True,1127
693,48,female,18,11,active,1,men,21,7,1.0,1.0,1.0,1,True,True,893
694,48,female,18,11,active,1,men,22,5,2.0,-2.0,-2.0,1,False,False,1107
695,48,female,18,11,active,1,men,23,7,2.0,2.0,2.0,1,False,False,1747
696,48,female,18,11,active,1,men,24,6,1.0,-1.0,-1.0,1,True,False,792
697,48,female,18,11,active,1,men,25,4,2.0,-2.0,-2.0,1,False,False,1827
698,48,female,18,11,active,1,men,26,2,2.0,-2.0,-2.0,1,False,False,1849
699,48,female,18,11,active,1,men,27,1,1.0,-1.0,-1.0,1,True,False,1567
700,48,female,18,11,active,1,men,28,2,1.0,1.0,1.0,1,True,True,1276
701,48,female,18,11,active,1,men,29,4,2.0,2.0,2.0,1,False,False,2152
702,48,female,18,11,active,1,men,30,3,1.0,-1.0,-1.0,1,True,False,3189
703,48,female,18,11,active,1,men,31,2,1.0,-1.0,-1.0,1,True,False,5301
704,48,female,18,11,active,1,men,32,4,2.0,2.0,2.0,1,False,False,4909
705,48,female,18,11,active,1,men,33,2,2.0,-2.0,-2.0,1,False,False,1152
706,48,female,18,11,active,1,men,34,3,1.0,1.0,1.0,1,True,True,6832
707,48,female,18,11,active,1,men,35,1,2.0,-2.0,-2.0,1,False,False,2479
708,48,female,18,11,active,1,men,36,4,3.0,3.0,-1.0,0,True,False,5766
709,48,female,18,11,active,1,men,37,7,3.0,3.0,1.0,0,True,True,1848
710,48,female,18,11,active,1,men,38,5,2.0,-2.0,-2.0,1,False,False,5394
711,48,female,18,11,active,1,men,39,6,1.0,1.0,1.0,1,True,True,1060
712,48,female,18,11,active,1,men,40,5,1.0,-1.0,-1.0,1,True,False,1241
713,48,female,18,11,active,1,men,41,1,4.0,-4.0,-1.0,0,True,False,1760
714,48,female,18,11,active,1,men,42,5,4.0,4.0,-1.0,0,True,False,1239
715,48,female,18,11,active,1,men,43,3,2.0,-2.0,-2.0,1,False,False,1646
716,48,female,18,11,active,1,men,44,7,4.0,4.0,-1.0,0,True,False,2849
717,48,female,18,11,active,1,men,45,5,2.0,-2.0,-2.0,1,False,False,1197
718,48,female,18,11,active,1,men,46,3,2.0,-2.0,-2.0,1,False,False,1479
719,48,female,18,11,active,1,men,47,6,3.0,3.0,1.0,0,True,True,1197
720,48,female,18,11,active,1,men,48,5,1.0,-1.0,-1.0,1,True,False,6271
721,48,female,18,11,active,1,men,49,2,3.0,-3.0,2.0,0,False,False,4649
722,48,female,18,11,active,1,men,50,4,2.0,2.0,2.0,1,False,False,7431
723,48,female,18,11,active,1,men,51,1,3.0,-3.0,2.0,0,False,False,3647
724,48,female,18,11,active,1,men,52,2,1.0,1.0,1.0,1,True,True,10232
725,48,female,18,11,active,1,men,53,5,3.0,3.0,-1.0,0,True,False,1781
726,48,female,18,11,active,1,men,54,1,4.0,-4.0,-1.0,0,True,False,2019
727,48,female,18,11,active,1,men,55,2,1.0,1.0,1.0,1,True,True,1388
728,48,female,18,11,yoked,0,women,0,3,,,,0,,,4455
729,48,female,18,11,yoked,0,women,1,6,3.0,3.0,-1.0,0,True,False,6259
730,48,female,18,11,yoked,0,women,2,2,4.0,-4.0,-2.0,0,False,False,6675
731,48,female,18,11,yoked,0,women,3,7,5.0,5.0,1.0,0,True,True,9667
732,48,female,18,11,yoked,0,women,4,0,7.0,-7.0,-1.0,0,True,False,7192
733,48,female,18,11,yoked,0,women,5,3,3.0,3.0,2.0,0,False,False,2408
734,48,female,18,11,yoked,0,women,6,7,4.0,4.0,2.0,0,False,False,4401
735,48,female,18,11,yoked,0,women,7,2,5.0,-5.0,-2.0,0,False,False,1669
736,48,female,18,11,yoked,0,women,8,5,3.0,3.0,-2.0,0,False,False,3458
737,48,female,18,11,yoked,0,women,9,0,5.0,-5.0,2.0,0,False,False,4291
738,48,female,18,11,yoked,0,women,10,1,1.0,1.0,1.0,1,True,True,2489
739,48,female,18,11,yoked,0,women,11,2,1.0,1.0,1.0,1,True,True,2401
740,48,female,18,11,yoked,0,women,12,4,2.0,2.0,2.0,1,False,False,2039
741,48,female,18,11,yoked,0,women,13,3,1.0,-1.0,-1.0,1,True,False,1703
742,48,female,18,11,yoked,0,women,14,6,3.0,3.0,2.0,0,False,False,1400
743,48,female,18,11,yoked,0,women,15,4,2.0,-2.0,-2.0,1,False,False,1400
744,48,female,18,11,yoked,0,women,16,0,4.0,-4.0,1.0,0,True,True,6057
745,48,female,18,11,yoked,0,women,17,1,1.0,1.0,1.0,1,True,True,2682
746,48,female,18,11,yoked,0,women,18,3,2.0,2.0,2.0,1,False,False,1939
747,48,female,18,11,yoked,0,women,19,0,3.0,-3.0,-1.0,0,True,False,3256
748,48,female,18,11,yoked,0,women,20,2,2.0,2.0,2.0,1,False,False,2119
749,48,female,18,11,yoked,0,women,21,1,1.0,-1.0,-1.0,1,True,False,2580
750,48,female,18,11,yoked,0,women,22,3,2.0,2.0,2.0,1,False,False,3874
751,48,female,18,11,yoked,0,women,23,5,2.0,2.0,2.0,1,False,False,1264
752,48,female,18,11,yoked,0,women,24,2,3.0,-3.0,-2.0,0,False,False,1827
753,48,female,18,11,yoked,0,women,25,6,4.0,4.0,1.0,0,True,True,1309
754,48,female,18,11,yoked,0,women,26,7,1.0,1.0,1.0,1,True,True,1264
755,48,female,18,11,yoked,0,women,27,5,2.0,-2.0,-2.0,1,False,False,3436
756,48,female,18,11,yoked,0,women,28,0,5.0,-5.0,1.0,0,True,True,1163
757,48,female,18,11,yoked,0,women,29,6,6.0,6.0,2.0,0,False,False,1096
758,48,female,18,11,yoked,0,women,30,4,2.0,-2.0,-2.0,1,False,False,1321
759,48,female,18,11,yoked,0,women,31,6,2.0,2.0,2.0,1,False,False,2154
760,48,female,18,11,yoked,0,women,32,3,3.0,-3.0,-1.0,0,True,False,1467
761,48,female,18,11,yoked,0,women,33,2,1.0,-1.0,-1.0,1,True,False,2142
762,48,female,18,11,yoked,0,women,34,7,5.0,5.0,1.0,0,True,True,2659
763,48,female,18,11,yoked,0,women,35,0,7.0,-7.0,-1.0,0,True,False,1220
764,48,female,18,11,yoked,0,women,36,4,4.0,4.0,1.0,0,True,True,1512
765,48,female,18,11,yoked,0,women,37,3,1.0,-1.0,-1.0,1,True,False,1659
766,48,female,18,11,yoked,0,women,38,7,4.0,4.0,-1.0,0,True,False,1502
767,48,female,18,11,yoked,0,women,39,1,6.0,-6.0,-2.0,0,False,False,1568
768,48,female,18,11,yoked,0,women,40,2,1.0,1.0,1.0,1,True,True,1232
769,48,female,18,11,yoked,0,women,41,0,2.0,-2.0,-2.0,1,False,False,1062
770,48,female,18,11,yoked,0,women,42,1,1.0,1.0,1.0,1,True,True,1997
771,48,female,18,11,yoked,0,women,43,7,6.0,6.0,1.0,0,True,True,1646
772,48,female,18,11,yoked,0,women,44,5,2.0,-2.0,-2.0,1,False,False,1331
773,48,female,18,11,yoked,0,women,45,2,3.0,-3.0,-1.0,0,True,False,3077
774,48,female,18,11,yoked,0,women,46,5,3.0,3.0,2.0,0,False,False,1996
775,48,female,18,11,yoked,0,women,47,2,3.0,-3.0,-2.0,0,False,False,1590
776,48,female,18,11,yoked,0,women,48,0,2.0,-2.0,-2.0,1,False,False,1342
777,48,female,18,11,yoked,0,women,49,1,1.0,1.0,1.0,1,True,True,871
778,48,female,18,11,yoked,0,women,50,3,2.0,2.0,2.0,1,False,False,2130
779,48,female,18,11,yoked,0,women,51,4,1.0,1.0,1.0,1,True,True,1287
780,48,female,18,11,yoked,0,women,52,0,4.0,-4.0,2.0,0,False,False,3155
781,48,female,18,11,yoked,0,women,53,2,2.0,2.0,2.0,1,False,False,2153
782,48,female,18,11,yoked,0,women,54,3,1.0,1.0,1.0,1,True,True,1376
783,48,female,18,11,yoked,0,women,55,6,3.0,3.0,2.0,0,False,False,2379
784,49,female,21,20,active,1,men,0,7,,,,0,,,7000
785,49,female,21,20,active,1,men,1,5,2.0,-2.0,-2.0,1,False,False,3829
786,49,female,21,20,active,1,men,2,7,2.0,2.0,2.0,1,False,False,5662
787,49,female,21,20,active,1,men,3,5,2.0,-2.0,-2.0,1,False,False,4145
788,49,female,21,20,active,1,men,4,3,2.0,-2.0,-2.0,1,False,False,2951
789,49,female,21,20,active,1,men,5,1,2.0,-2.0,-2.0,1,False,False,1917
790,49,female,21,20,active,1,men,6,5,4.0,4.0,1.0,0,True,True,3515
791,49,female,21,20,active,1,men,7,6,1.0,1.0,1.0,1,True,True,2288
792,49,female,21,20,active,1,men,8,1,5.0,-5.0,-1.0,0,True,False,5404
793,49,female,21,20,active,1,men,9,0,1.0,-1.0,-1.0,1,True,False,2053
794,49,female,21,20,active,1,men,10,2,2.0,2.0,2.0,1,False,False,1602
795,49,female,21,20,active,1,men,11,7,5.0,5.0,-2.0,0,False,False,1636
796,49,female,21,20,active,1,men,12,1,6.0,-6.0,-2.0,0,False,False,3369
797,49,female,21,20,active,1,men,13,4,3.0,3.0,2.0,0,False,False,1815
798,49,female,21,20,active,1,men,14,5,1.0,1.0,1.0,1,True,True,2355
799,49,female,21,20,active,1,men,15,3,2.0,-2.0,-2.0,1,False,False,2187
800,49,female,21,20,active,1,men,16,0,3.0,-3.0,-2.0,0,False,False,1477
801,49,female,21,20,active,1,men,17,2,2.0,2.0,2.0,1,False,False,3391
802,49,female,21,20,active,1,men,18,7,5.0,5.0,2.0,0,False,False,1523
803,49,female,21,20,active,1,men,19,2,5.0,-5.0,-2.0,0,False,False,1668
804,49,female,21,20,active,1,men,20,7,5.0,5.0,-2.0,0,False,False,1467
805,49,female,21,20,active,1,men,21,6,1.0,-1.0,-1.0,1,True,False,1523
806,49,female,21,20,active,1,men,22,0,6.0,-6.0,-2.0,0,False,False,2308
807,49,female,21,20,active,1,men,23,5,5.0,5.0,2.0,0,False,False,6980
808,49,female,21,20,active,1,men,24,2,3.0,-3.0,2.0,0,False,False,2188
809,49,female,21,20,active,1,men,25,3,1.0,1.0,1.0,1,True,True,3558
810,49,female,21,20,active,1,men,26,1,2.0,-2.0,-2.0,1,False,False,2907
811,49,female,21,20,active,1,men,27,7,6.0,6.0,2.0,0,False,False,2976
812,49,female,21,20,active,1,men,28,6,1.0,-1.0,-1.0,1,True,False,5267
813,49,female,21,20,active,1,men,29,1,5.0,-5.0,1.0,0,True,True,1534
814,49,female,21,20,active,1,men,30,0,1.0,-1.0,-1.0,1,True,False,2390
815,49,female,21,20,active,1,men,31,2,2.0,2.0,2.0,1,False,False,2050
816,49,female,21,20,active,1,men,32,0,2.0,-2.0,-2.0,1,False,False,3750
817,49,female,21,20,active,1,men,33,4,4.0,4.0,2.0,0,False,False,3447
818,49,female,21,20,active,1,men,34,3,1.0,-1.0,-1.0,1,True,False,2647
819,49,female,21,20,active,1,men,35,4,1.0,1.0,1.0,1,True,True,3582
820,49,female,21,20,active,1,men,36,1,3.0,-3.0,-2.0,0,False,False,4807
821,49,female,21,20,active,1,men,37,4,3.0,3.0,2.0,0,False,False,3108
822,49,female,21,20,active,1,men,38,0,4.0,-4.0,1.0,0,True,True,5743
823,49,female,21,20,active,1,men,39,1,1.0,1.0,1.0,1,True,True,1411
824,49,female,21,20,active,1,men,40,4,3.0,3.0,2.0,0,False,False,4147
825,49,female,21,20,active,1,men,41,2,2.0,-2.0,-2.0,1,False,False,4750
826,49,female,21,20,active,1,men,42,1,1.0,-1.0,-1.0,1,True,False,5901
827,49,female,21,20,active,1,men,43,4,3.0,3.0,1.0,0,True,True,3942
828,49,female,21,20,active,1,men,44,0,4.0,-4.0,1.0,0,True,True,2005
829,49,female,21,20,active,1,men,45,3,3.0,3.0,1.0,0,True,True,2267
830,49,female,21,20,active,1,men,46,0,3.0,-3.0,-2.0,0,False,False,4643
831,49,female,21,20,active,1,men,47,5,5.0,5.0,1.0,0,True,True,3806
832,49,female,21,20,active,1,men,48,3,2.0,-2.0,-2.0,1,False,False,6553
833,49,female,21,20,active,1,men,49,2,1.0,-1.0,-1.0,1,True,False,3906
834,49,female,21,20,active,1,men,50,6,4.0,4.0,1.0,0,True,True,3338
835,49,female,21,20,active,1,men,51,7,1.0,1.0,1.0,1,True,True,5474
836,49,female,21,20,active,1,men,52,5,2.0,-2.0,-2.0,1,False,False,6379
837,49,female,21,20,active,1,men,53,7,2.0,2.0,2.0,1,False,False,5502
838,49,female,21,20,active,1,men,54,5,2.0,-2.0,-2.0,1,False,False,13188
839,49,female,21,20,active,1,men,55,6,1.0,1.0,1.0,1,True,True,3243
840,49,female,21,20,yoked,0,women,0,5,,,,0,,,3783
841,49,female,21,20,yoked,0,women,1,4,1.0,-1.0,-1.0,1,True,False,2287
842,49,female,21,20,yoked,0,women,2,6,2.0,2.0,2.0,1,False,False,3323
843,49,female,21,20,yoked,0,women,3,7,1.0,1.0,1.0,1,True,True,3030
844,49,female,21,20,yoked,0,women,4,3,4.0,-4.0,-1.0,0,True,False,1635
845,49,female,21,20,yoked,0,women,5,2,1.0,-1.0,-1.0,1,True,False,3210
846,49,female,21,20,yoked,0,women,6,6,4.0,4.0,-1.0,0,True,False,4090
847,49,female,21,20,yoked,0,women,7,1,5.0,-5.0,-1.0,0,True,False,1780
848,49,female,21,20,yoked,0,women,8,6,5.0,5.0,-1.0,0,True,False,2063
849,49,female,21,20,yoked,0,women,9,2,4.0,-4.0,-1.0,0,True,False,1083
850,49,female,21,20,yoked,0,women,10,0,2.0,-2.0,-2.0,1,False,False,1105
851,49,female,21,20,yoked,0,women,11,3,3.0,3.0,2.0,0,False,False,1557
852,49,female,21,20,yoked,0,women,12,1,2.0,-2.0,-2.0,1,False,False,1995
853,49,female,21,20,yoked,0,women,13,7,6.0,6.0,1.0,0,True,True,1197
854,49,female,21,20,yoked,0,women,14,6,1.0,-1.0,-1.0,1,True,False,1343
855,49,female,21,20,yoked,0,women,15,4,2.0,-2.0,-2.0,1,False,False,1455
856,49,female,21,20,yoked,0,women,16,1,3.0,-3.0,-2.0,0,False,False,2660
857,49,female,21,20,yoked,0,women,17,2,1.0,1.0,1.0,1,True,True,1354
858,49,female,21,20,yoked,0,women,18,5,3.0,3.0,-2.0,0,False,False,1725
859,49,female,21,20,yoked,0,women,19,2,3.0,-3.0,-2.0,0,False,False,1017
860,49,female,21,20,yoked,0,women,20,0,2.0,-2.0,-2.0,1,False,False,903
861,49,female,21,20,yoked,0,women,21,1,1.0,1.0,1.0,1,True,True,1501
862,49,female,21,20,yoked,0,women,22,7,6.0,6.0,2.0,0,False,False,1457
863,49,female,21,20,yoked,0,women,23,5,2.0,-2.0,-2.0,1,False,False,1186
864,49,female,21,20,yoked,0,women,24,3,2.0,-2.0,-2.0,1,False,False,860
865,49,female,21,20,yoked,0,women,25,6,3.0,3.0,1.0,0,True,True,914
866,49,female,21,20,yoked,0,women,26,1,5.0,-5.0,-1.0,0,True,False,1321
867,49,female,21,20,yoked,0,women,27,2,1.0,1.0,1.0,1,True,True,1513
868,49,female,21,20,yoked,0,women,28,4,2.0,2.0,2.0,1,False,False,860
869,49,female,21,20,yoked,0,women,29,7,3.0,3.0,-1.0,0,True,False,2042
870,49,female,21,20,yoked,0,women,30,1,6.0,-6.0,-2.0,0,False,False,1027
871,49,female,21,20,yoked,0,women,31,7,6.0,6.0,1.0,0,True,True,1095
872,49,female,21,20,yoked,0,women,32,5,2.0,-2.0,-2.0,1,False,False,1309
873,49,female,21,20,yoked,0,women,33,1,4.0,-4.0,-2.0,0,False,False,984
874,49,female,21,20,yoked,0,women,34,3,2.0,2.0,2.0,1,False,False,904
875,49,female,21,20,yoked,0,women,35,6,3.0,3.0,-2.0,0,False,False,917
876,49,female,21,20,yoked,0,women,36,4,2.0,-2.0,-2.0,1,False,False,814
877,49,female,21,20,yoked,0,women,37,1,3.0,-3.0,-1.0,0,True,False,1264
878,49,female,21,20,yoked,0,women,38,0,1.0,-1.0,-1.0,1,True,False,792
879,49,female,21,20,yoked,0,women,39,7,7.0,7.0,1.0,0,True,True,1613
880,49,female,21,20,yoked,0,women,40,4,3.0,-3.0,-1.0,0,True,False,948
881,49,female,21,20,yoked,0,women,41,2,2.0,-2.0,-2.0,1,False,False,1096
882,49,female,21,20,yoked,0,women,42,7,5.0,5.0,-1.0,0,True,False,757
883,49,female,21,20,yoked,0,women,43,2,5.0,-5.0,-1.0,0,True,False,657
884,49,female,21,20,yoked,0,women,44,0,2.0,-2.0,-2.0,1,False,False,546
885,49,female,21,20,yoked,0,women,45,7,7.0,7.0,2.0,0,False,False,1681
886,49,female,21,20,yoked,0,women,46,3,4.0,-4.0,-2.0,0,False,False,905
887,49,female,21,20,yoked,0,women,47,4,1.0,1.0,1.0,1,True,True,983
888,49,female,21,20,yoked,0,women,48,7,3.0,3.0,-2.0,0,False,False,1187
889,49,female,21,20,yoked,0,women,49,6,1.0,-1.0,-1.0,1,True,False,871
890,49,female,21,20,yoked,0,women,50,7,1.0,1.0,1.0,1,True,True,2040
891,49,female,21,20,yoked,0,women,51,5,2.0,-2.0,-2.0,1,False,False,1187
892,49,female,21,20,yoked,0,women,52,3,2.0,-2.0,-2.0,1,False,False,1974
893,49,female,21,20,yoked,0,women,53,0,3.0,-3.0,-1.0,0,True,False,2288
894,49,female,21,20,yoked,0,women,54,1,1.0,1.0,1.0,1,True,True,1143
895,49,female,21,20,yoked,0,women,55,6,5.0,5.0,1.0,0,True,True,1569
896,50,female,19,11,active,1,women,0,0,,,,0,,,11062
897,50,female,19,11,active,1,women,1,2,2.0,2.0,2.0,1,False,False,7833
898,50,female,19,11,active,1,women,2,1,1.0,-1.0,-1.0,1,True,False,3020
899,50,female,19,11,active,1,women,3,3,2.0,2.0,2.0,1,False,False,2604
900,50,female,19,11,active,1,women,4,7,4.0,4.0,2.0,0,False,False,2390
901,50,female,19,11,active,1,women,5,5,2.0,-2.0,-2.0,1,False,False,4652
902,50,female,19,11,active,1,women,6,6,1.0,1.0,1.0,1,True,True,1872
903,50,female,19,11,active,1,women,7,4,2.0,-2.0,-2.0,1,False,False,2187
904,50,female,19,11,active,1,women,8,3,1.0,-1.0,-1.0,1,True,False,2693
905,50,female,19,11,active,1,women,9,4,1.0,1.0,1.0,1,True,True,3063
906,50,female,19,11,active,1,women,10,1,3.0,-3.0,-1.0,0,True,False,8363
907,50,female,19,11,active,1,women,11,5,4.0,4.0,2.0,0,False,False,7722
908,50,female,19,11,active,1,women,12,4,1.0,-1.0,-1.0,1,True,False,3998
909,50,female,19,11,active,1,women,13,0,4.0,-4.0,-1.0,0,True,False,2940
910,50,female,19,11,active,1,women,14,5,5.0,5.0,2.0,0,False,False,2121
911,50,female,19,11,active,1,women,15,1,4.0,-4.0,-1.0,0,True,False,6744
912,50,female,19,11,active,1,women,16,6,5.0,5.0,2.0,0,False,False,3616
913,50,female,19,11,active,1,women,17,5,1.0,-1.0,-1.0,1,True,False,3289
914,50,female,19,11,active,1,women,18,6,1.0,1.0,1.0,1,True,True,2346
915,50,female,19,11,active,1,women,19,7,1.0,1.0,1.0,1,True,True,6328
916,50,female,19,11,active,1,women,20,1,6.0,-6.0,-2.0,0,False,False,4134
917,50,female,19,11,active,1,women,21,2,1.0,1.0,1.0,1,True,True,5224
918,50,female,19,11,active,1,women,22,0,2.0,-2.0,-2.0,1,False,False,9117
919,50,female,19,11,active,1,women,23,7,7.0,7.0,2.0,0,False,False,3976
920,50,female,19,11,active,1,women,24,6,1.0,-1.0,-1.0,1,True,False,6137
921,50,female,19,11,active,1,women,25,4,2.0,-2.0,-2.0,1,False,False,6090
922,50,female,19,11,active,1,women,26,0,4.0,-4.0,-2.0,0,False,False,2603
923,50,female,19,11,active,1,women,27,1,1.0,1.0,1.0,1,True,True,5415
924,50,female,19,11,active,1,women,28,3,2.0,2.0,2.0,1,False,False,6192
925,50,female,19,11,active,1,women,29,6,3.0,3.0,-2.0,0,False,False,2245
926,50,female,19,11,active,1,women,30,1,5.0,-5.0,-1.0,0,True,False,17420
927,50,female,19,11,active,1,women,31,0,1.0,-1.0,-1.0,1,True,False,8408
928,50,female,19,11,active,1,women,32,5,5.0,5.0,2.0,0,False,False,4807
929,50,female,19,11,active,1,women,33,4,1.0,-1.0,-1.0,1,True,False,4292
930,50,female,19,11,active,1,women,34,1,3.0,-3.0,1.0,0,True,True,5112
931,50,female,19,11,active,1,women,35,3,2.0,2.0,2.0,1,False,False,3525
932,50,female,19,11,active,1,women,36,2,1.0,-1.0,-1.0,1,True,False,4504
933,50,female,19,11,active,1,women,37,4,2.0,2.0,2.0,1,False,False,7385
934,50,female,19,11,active,1,women,38,1,3.0,-3.0,-2.0,0,False,False,11727
935,50,female,19,11,active,1,women,39,2,1.0,1.0,1.0,1,True,True,3154
936,50,female,19,11,active,1,women,40,7,5.0,5.0,-2.0,0,False,False,2400
937,50,female,19,11,active,1,women,41,0,7.0,-7.0,-2.0,0,False,False,4965
938,50,female,19,11,active,1,women,42,3,3.0,3.0,1.0,0,True,True,9319
939,50,female,19,11,active,1,women,43,0,3.0,-3.0,-2.0,0,False,False,3324
940,50,female,19,11,active,1,women,44,2,2.0,2.0,2.0,1,False,False,5440
941,50,female,19,11,active,1,women,45,7,5.0,5.0,-1.0,0,True,False,3131
942,50,female,19,11,active,1,women,46,5,2.0,-2.0,-2.0,1,False,False,8184
943,50,female,19,11,active,1,women,47,0,5.0,-5.0,2.0,0,False,False,8342
944,50,female,19,11,active,1,women,48,4,4.0,4.0,2.0,0,False,False,5338
945,50,female,19,11,active,1,women,49,3,1.0,-1.0,-1.0,1,True,False,2839
946,50,female,19,11,active,1,women,50,0,3.0,-3.0,2.0,0,False,False,2299
947,50,female,19,11,active,1,women,51,5,5.0,5.0,2.0,0,False,False,3975
948,50,female,19,11,active,1,women,52,0,5.0,-5.0,2.0,0,False,False,5855
949,50,female,19,11,active,1,women,53,4,4.0,4.0,1.0,0,True,True,3537
950,50,female,19,11,active,1,women,54,7,3.0,3.0,2.0,0,False,False,4639
951,50,female,19,11,active,1,women,55,6,1.0,-1.0,-1.0,1,True,False,5551
952,50,female,19,11,yoked,0,men,0,1,,,,0,,,2952
953,50,female,19,11,yoked,0,men,1,5,4.0,4.0,1.0,0,True,True,3737
954,50,female,19,11,yoked,0,men,2,2,3.0,-3.0,1.0,0,True,True,3357
955,50,female,19,11,yoked,0,men,3,5,3.0,3.0,-2.0,0,False,False,6650
956,50,female,19,11,yoked,0,men,4,4,1.0,-1.0,-1.0,1,True,False,3751
957,50,female,19,11,yoked,0,men,5,7,3.0,3.0,2.0,0,False,False,7890
958,50,female,19,11,yoked,0,men,6,5,2.0,-2.0,-2.0,1,False,False,4639
959,50,female,19,11,yoked,0,men,7,7,2.0,2.0,2.0,1,False,False,2984
960,50,female,19,11,yoked,0,men,8,0,7.0,-7.0,-2.0,0,False,False,3414
961,50,female,19,11,yoked,0,men,9,2,2.0,2.0,2.0,1,False,False,7045
962,50,female,19,11,yoked,0,men,10,0,2.0,-2.0,-2.0,1,False,False,6570
963,50,female,19,11,yoked,0,men,11,5,5.0,5.0,1.0,0,True,True,3908
964,50,female,19,11,yoked,0,men,12,6,1.0,1.0,1.0,1,True,True,4526
965,50,female,19,11,yoked,0,men,13,3,3.0,-3.0,1.0,0,True,True,2378
966,50,female,19,11,yoked,0,men,14,4,1.0,1.0,1.0,1,True,True,2176
967,50,female,19,11,yoked,0,men,15,6,2.0,2.0,2.0,1,False,False,5031
968,50,female,19,11,yoked,0,men,16,2,4.0,-4.0,1.0,0,True,True,6788
969,50,female,19,11,yoked,0,men,17,1,1.0,-1.0,-1.0,1,True,False,2377
970,50,female,19,11,yoked,0,men,18,5,4.0,4.0,2.0,0,False,False,2877
971,50,female,19,11,yoked,0,men,19,6,1.0,1.0,1.0,1,True,True,39051
972,50,female,19,11,yoked,0,men,20,5,1.0,-1.0,-1.0,1,True,False,4413
973,50,female,19,11,yoked,0,men,21,2,3.0,-3.0,2.0,0,False,False,3752
974,50,female,19,11,yoked,0,men,22,5,3.0,3.0,-2.0,0,False,False,4403
975,50,female,19,11,yoked,0,men,23,7,2.0,2.0,2.0,1,False,False,18354
976,50,female,19,11,yoked,0,men,24,0,7.0,-7.0,-2.0,0,False,False,4895
977,50,female,19,11,yoked,0,men,25,5,5.0,5.0,2.0,0,False,False,4312
978,50,female,19,11,yoked,0,men,26,7,2.0,2.0,2.0,1,False,False,1916
979,50,female,19,11,yoked,0,men,27,5,2.0,-2.0,-2.0,1,False,False,4538
980,50,female,19,11,yoked,0,men,28,6,1.0,1.0,1.0,1,True,True,2131
981,50,female,19,11,yoked,0,men,29,3,3.0,-3.0,-1.0,0,True,False,2726
982,50,female,19,11,yoked,0,men,30,0,3.0,-3.0,1.0,0,True,True,3875
983,50,female,19,11,yoked,0,men,31,2,2.0,2.0,2.0,1,False,False,3301
984,50,female,19,11,yoked,0,men,32,5,3.0,3.0,1.0,0,True,True,3053
985,50,female,19,11,yoked,0,men,33,3,2.0,-2.0,-2.0,1,False,False,15653
986,50,female,19,11,yoked,0,men,34,2,1.0,-1.0,-1.0,1,True,False,8452
987,50,female,19,11,yoked,0,men,35,1,1.0,-1.0,-1.0,1,True,False,3279
988,50,female,19,11,yoked,0,men,36,2,1.0,1.0,1.0,1,True,True,3492
989,50,female,19,11,yoked,0,men,37,3,1.0,1.0,1.0,1,True,True,11177
990,50,female,19,11,yoked,0,men,38,6,3.0,3.0,2.0,0,False,False,4211
991,50,female,19,11,yoked,0,men,39,1,5.0,-5.0,1.0,0,True,True,2872
992,50,female,19,11,yoked,0,men,40,0,1.0,-1.0,-1.0,1,True,False,3369
993,50,female,19,11,yoked,0,men,41,6,6.0,6.0,2.0,0,False,False,10671
994,50,female,19,11,yoked,0,men,42,0,6.0,-6.0,-2.0,0,False,False,4977
995,50,female,19,11,yoked,0,men,43,1,1.0,1.0,1.0,1,True,True,2806
996,50,female,19,11,yoked,0,men,44,4,3.0,3.0,-1.0,0,True,False,2116
997,50,female,19,11,yoked,0,men,45,7,3.0,3.0,-2.0,0,False,False,2435
998,50,female,19,11,yoked,0,men,46,4,3.0,-3.0,-2.0,0,False,False,3458
999,50,female,19,11,yoked,0,men,47,0,4.0,-4.0,2.0,0,False,False,2357
1000,50,female,19,11,yoked,0,men,48,1,1.0,1.0,1.0,1,True,True,2907
1001,50,female,19,11,yoked,0,men,49,0,1.0,-1.0,-1.0,1,True,False,4381
1002,50,female,19,11,yoked,0,men,50,1,1.0,1.0,1.0,1,True,True,14238
1003,50,female,19,11,yoked,0,men,51,7,6.0,6.0,-1.0,0,True,False,4898
1004,50,female,19,11,yoked,0,men,52,3,4.0,-4.0,-1.0,0,True,False,20143
1005,50,female,19,11,yoked,0,men,53,4,1.0,1.0,1.0,1,True,True,2118
1006,50,female,19,11,yoked,0,men,54,3,1.0,-1.0,-1.0,1,True,False,3121
1007,50,female,19,11,yoked,0,men,55,0,3.0,-3.0,2.0,0,False,False,2062
1008,51,male,19,13,active,0,men,0,2,,,,0,,,2533
1009,51,male,19,13,active,0,men,1,0,2.0,-2.0,-2.0,1,False,False,2792
1010,51,male,19,13,active,0,men,2,3,3.0,3.0,2.0,0,False,False,4865
1011,51,male,19,13,active,0,men,3,0,3.0,-3.0,1.0,0,True,True,1995
1012,51,male,19,13,active,0,men,4,5,5.0,5.0,1.0,0,True,True,5560
1013,51,male,19,13,active,0,men,5,1,4.0,-4.0,-2.0,0,False,False,1850
1014,51,male,19,13,active,0,men,6,5,4.0,4.0,-1.0,0,True,False,2162
1015,51,male,19,13,active,0,men,7,3,2.0,-2.0,-2.0,1,False,False,1748
1016,51,male,19,13,active,0,men,8,0,3.0,-3.0,2.0,0,False,False,1769
1017,51,male,19,13,active,0,men,9,2,2.0,2.0,2.0,1,False,False,2897
1018,51,male,19,13,active,0,men,10,1,1.0,-1.0,-1.0,1,True,False,1973
1019,51,male,19,13,active,0,men,11,2,1.0,1.0,1.0,1,True,True,3839
1020,51,male,19,13,active,0,men,12,6,4.0,4.0,1.0,0,True,True,1411
1021,51,male,19,13,active,0,men,13,7,1.0,1.0,1.0,1,True,True,1320
1022,51,male,19,13,active,0,men,14,6,1.0,-1.0,-1.0,1,True,False,1330
1023,51,male,19,13,active,0,men,15,7,1.0,1.0,1.0,1,True,True,836
1024,51,male,19,13,active,0,men,16,4,3.0,-3.0,-2.0,0,False,False,1307
1025,51,male,19,13,active,0,men,17,7,3.0,3.0,1.0,0,True,True,1085
1026,51,male,19,13,active,0,men,18,0,7.0,-7.0,-2.0,0,False,False,2054
1027,51,male,19,13,active,0,men,19,4,4.0,4.0,1.0,0,True,True,6731
1028,51,male,19,13,active,0,men,20,6,2.0,2.0,2.0,1,False,False,1938
1029,51,male,19,13,active,0,men,21,1,5.0,-5.0,-2.0,0,False,False,2355
1030,51,male,19,13,active,0,men,22,4,3.0,3.0,1.0,0,True,True,2433
1031,51,male,19,13,active,0,men,23,6,2.0,2.0,2.0,1,False,False,1366
1032,51,male,19,13,active,0,men,24,3,3.0,-3.0,1.0,0,True,True,1545
1033,51,male,19,13,active,0,men,25,4,1.0,1.0,1.0,1,True,True,1848
1034,51,male,19,13,active,0,men,26,3,1.0,-1.0,-1.0,1,True,False,4461
1035,51,male,19,13,active,0,men,27,6,3.0,3.0,-1.0,0,True,False,1927
1036,51,male,19,13,active,0,men,28,2,4.0,-4.0,-1.0,0,True,False,6237
1037,51,male,19,13,active,0,men,29,5,3.0,3.0,2.0,0,False,False,6856
1038,51,male,19,13,active,0,men,30,3,2.0,-2.0,-2.0,1,False,False,4696
1039,51,male,19,13,active,0,men,31,0,3.0,-3.0,-1.0,0,True,False,3705
1040,51,male,19,13,active,0,men,32,6,6.0,6.0,2.0,0,False,False,4031
1041,51,male,19,13,active,0,men,33,3,3.0,-3.0,1.0,0,True,True,3774
1042,51,male,19,13,active,0,men,34,2,1.0,-1.0,-1.0,1,True,False,3007
1043,51,male,19,13,active,0,men,35,3,1.0,1.0,1.0,1,True,True,3008
1044,51,male,19,13,active,0,men,36,2,1.0,-1.0,-1.0,1,True,False,2872
1045,51,male,19,13,active,0,men,37,3,1.0,1.0,1.0,1,True,True,1602
1046,51,male,19,13,active,0,men,38,4,1.0,1.0,1.0,1,True,True,3073
1047,51,male,19,13,active,0,men,39,1,3.0,-3.0,-2.0,0,False,False,2545
1048,51,male,19,13,active,0,men,40,2,1.0,1.0,1.0,1,True,True,4707
1049,51,male,19,13,active,0,men,41,5,3.0,3.0,-1.0,0,True,False,3178
1050,51,male,19,13,active,0,men,42,1,4.0,-4.0,-1.0,0,True,False,4144
1051,51,male,19,13,active,0,men,43,2,1.0,1.0,1.0,1,True,True,4244
1052,51,male,19,13,active,0,men,44,4,2.0,2.0,2.0,1,False,False,3042
1053,51,male,19,13,active,0,men,45,3,1.0,-1.0,-1.0,1,True,False,2739
1054,51,male,19,13,active,0,men,46,2,1.0,-1.0,-1.0,1,True,False,2839
1055,51,male,19,13,active,0,men,47,4,2.0,2.0,2.0,1,False,False,2704
1056,51,male,19,13,active,0,men,48,1,3.0,-3.0,-1.0,0,True,False,3886
1057,51,male,19,13,active,0,men,49,3,2.0,2.0,2.0,1,False,False,2513
1058,51,male,19,13,active,0,men,50,1,2.0,-2.0,-2.0,1,False,False,5248
1059,51,male,19,13,active,0,men,51,0,1.0,-1.0,-1.0,1,True,False,6764
1060,51,male,19,13,active,0,men,52,5,5.0,5.0,1.0,0,True,True,2761
1061,51,male,19,13,active,0,men,53,4,1.0,-1.0,-1.0,1,True,False,7878
1062,51,male,19,13,active,0,men,54,3,1.0,-1.0,-1.0,1,True,False,4639
1063,51,male,19,13,active,0,men,55,1,2.0,-2.0,-2.0,1,False,False,3975
1064,51,male,19,13,yoked,1,women,0,7,,,,0,,,6448
1065,51,male,19,13,yoked,1,women,1,3,4.0,-4.0,-2.0,0,False,False,3098
1066,51,male,19,13,yoked,1,women,2,5,2.0,2.0,2.0,1,False,False,8869
1067,51,male,19,13,yoked,1,women,3,2,3.0,-3.0,2.0,0,False,False,3437
1068,51,male,19,13,yoked,1,women,4,6,4.0,4.0,-2.0,0,False,False,1781
1069,51,male,19,13,yoked,1,women,5,2,4.0,-4.0,-2.0,0,False,False,5256
1070,51,male,19,13,yoked,1,women,6,7,5.0,5.0,-2.0,0,False,False,2524
1071,51,male,19,13,yoked,1,women,7,4,3.0,-3.0,-2.0,0,False,False,3390
1072,51,male,19,13,yoked,1,women,8,3,1.0,-1.0,-1.0,1,True,False,2063
1073,51,male,19,13,yoked,1,women,9,2,1.0,-1.0,-1.0,1,True,False,1612
1074,51,male,19,13,yoked,1,women,10,4,2.0,2.0,2.0,1,False,False,1082
1075,51,male,19,13,yoked,1,women,11,5,1.0,1.0,1.0,1,True,True,1063
1076,51,male,19,13,yoked,1,women,12,0,5.0,-5.0,2.0,0,False,False,1219
1077,51,male,19,13,yoked,1,women,13,5,5.0,5.0,2.0,0,False,False,1994
1078,51,male,19,13,yoked,1,women,14,1,4.0,-4.0,2.0,0,False,False,2906
1079,51,male,19,13,yoked,1,women,15,0,1.0,-1.0,-1.0,1,True,False,1938
1080,51,male,19,13,yoked,1,women,16,1,1.0,1.0,1.0,1,True,True,2086
1081,51,male,19,13,yoked,1,women,17,5,4.0,4.0,-1.0,0,True,False,2254
1082,51,male,19,13,yoked,1,women,18,0,5.0,-5.0,1.0,0,True,True,1994
1083,51,male,19,13,yoked,1,women,19,1,1.0,1.0,1.0,1,True,True,1456
1084,51,male,19,13,yoked,1,women,20,2,1.0,1.0,1.0,1,True,True,1060
1085,51,male,19,13,yoked,1,women,21,7,5.0,5.0,2.0,0,False,False,4189
1086,51,male,19,13,yoked,1,women,22,2,5.0,-5.0,-2.0,0,False,False,1445
1087,51,male,19,13,yoked,1,women,23,6,4.0,4.0,2.0,0,False,False,2816
1088,51,male,19,13,yoked,1,women,24,4,2.0,-2.0,-2.0,1,False,False,3009
1089,51,male,19,13,yoked,1,women,25,7,3.0,3.0,-2.0,0,False,False,1692
1090,51,male,19,13,yoked,1,women,26,4,3.0,-3.0,-1.0,0,True,False,1556
1091,51,male,19,13,yoked,1,women,27,3,1.0,-1.0,-1.0,1,True,False,1207
1092,51,male,19,13,yoked,1,women,28,1,2.0,-2.0,-2.0,1,False,False,3561
1093,51,male,19,13,yoked,1,women,29,3,2.0,2.0,2.0,1,False,False,3029
1094,51,male,19,13,yoked,1,women,30,2,1.0,-1.0,-1.0,1,True,False,1861
1095,51,male,19,13,yoked,1,women,31,7,5.0,5.0,1.0,0,True,True,1748
1096,51,male,19,13,yoked,1,women,32,6,1.0,-1.0,-1.0,1,True,False,1454
1097,51,male,19,13,yoked,1,women,33,3,3.0,-3.0,-2.0,0,False,False,2085
1098,51,male,19,13,yoked,1,women,34,5,2.0,2.0,2.0,1,False,False,983
1099,51,male,19,13,yoked,1,women,35,2,3.0,-3.0,-2.0,0,False,False,1242
1100,51,male,19,13,yoked,1,women,36,5,3.0,3.0,-2.0,0,False,False,1005
1101,51,male,19,13,yoked,1,women,37,3,2.0,-2.0,-2.0,1,False,False,1106
1102,51,male,19,13,yoked,1,women,38,5,2.0,2.0,2.0,1,False,False,1207
1103,51,male,19,13,yoked,1,women,39,3,2.0,-2.0,-2.0,1,False,False,1423
1104,51,male,19,13,yoked,1,women,40,6,3.0,3.0,-1.0,0,True,False,2210
1105,51,male,19,13,yoked,1,women,41,1,5.0,-5.0,-2.0,0,False,False,2321
1106,51,male,19,13,yoked,1,women,42,2,1.0,1.0,1.0,1,True,True,2478
1107,51,male,19,13,yoked,1,women,43,4,2.0,2.0,2.0,1,False,False,2512
1108,51,male,19,13,yoked,1,women,44,6,2.0,2.0,2.0,1,False,False,3526
1109,51,male,19,13,yoked,1,women,45,3,3.0,-3.0,-2.0,0,False,False,3243
1110,51,male,19,13,yoked,1,women,46,7,4.0,4.0,-1.0,0,True,False,1680
1111,51,male,19,13,yoked,1,women,47,4,3.0,-3.0,-1.0,0,True,False,6428
1112,51,male,19,13,yoked,1,women,48,5,1.0,1.0,1.0,1,True,True,6021
1113,51,male,19,13,yoked,1,women,49,7,2.0,2.0,2.0,1,False,False,1984
1114,51,male,19,13,yoked,1,women,50,5,2.0,-2.0,-2.0,1,False,False,1624
1115,51,male,19,13,yoked,1,women,51,3,2.0,-2.0,-2.0,1,False,False,2772
1116,51,male,19,13,yoked,1,women,52,6,3.0,3.0,-1.0,0,True,False,1287
1117,51,male,19,13,yoked,1,women,53,2,4.0,-4.0,-2.0,0,False,False,3651
1118,51,male,19,13,yoked,1,women,54,0,2.0,-2.0,-2.0,1,False,False,2457
1119,51,male,19,13,yoked,1,women,55,1,1.0,1.0,1.0,1,True,True,1602
1120,52,male,19,5,active,0,men,0,0,,,,0,,,3855
1121,52,male,19,5,active,0,men,1,4,4.0,4.0,2.0,0,False,False,4459
1122,52,male,19,5,active,0,men,2,0,4.0,-4.0,1.0,0,True,True,4503
1123,52,male,19,5,active,0,men,3,1,1.0,1.0,1.0,1,True,True,2173
1124,52,male,19,5,active,0,men,4,5,4.0,4.0,-1.0,0,True,False,2138
1125,52,male,19,5,active,0,men,5,1,4.0,-4.0,-1.0,0,True,False,3087
1126,52,male,19,5,active,0,men,6,3,2.0,2.0,2.0,1,False,False,1713
1127,52,male,19,5,active,0,men,7,5,2.0,2.0,2.0,1,False,False,1611
1128,52,male,19,5,active,0,men,8,7,2.0,2.0,2.0,1,False,False,1490
1129,52,male,19,5,active,0,men,9,6,1.0,-1.0,-1.0,1,True,False,2120
1130,52,male,19,5,active,0,men,10,4,2.0,-2.0,-2.0,1,False,False,3513
1131,52,male,19,5,active,0,men,11,6,2.0,2.0,2.0,1,False,False,2062
1132,52,male,19,5,active,0,men,12,7,1.0,1.0,1.0,1,True,True,3085
1133,52,male,19,5,active,0,men,13,1,6.0,-6.0,-1.0,0,True,False,1737
1134,52,male,19,5,active,0,men,14,2,1.0,1.0,1.0,1,True,True,1298
1135,52,male,19,5,active,0,men,15,4,2.0,2.0,2.0,1,False,False,2354
1136,52,male,19,5,active,0,men,16,7,3.0,3.0,1.0,0,True,True,4337
1137,52,male,19,5,active,0,men,17,3,4.0,-4.0,-2.0,0,False,False,2308
1138,52,male,19,5,active,0,men,18,6,3.0,3.0,-1.0,0,True,False,3683
1139,52,male,19,5,active,0,men,19,5,1.0,-1.0,-1.0,1,True,False,3107
1140,52,male,19,5,active,0,men,20,2,3.0,-3.0,-2.0,0,False,False,2851
1141,52,male,19,5,active,0,men,21,1,1.0,-1.0,-1.0,1,True,False,2320
1142,52,male,19,5,active,0,men,22,4,3.0,3.0,1.0,0,True,True,2128
1143,52,male,19,5,active,0,men,23,7,3.0,3.0,1.0,0,True,True,2266
1144,52,male,19,5,active,0,men,24,5,2.0,-2.0,-2.0,1,False,False,2919
1145,52,male,19,5,active,0,men,25,3,2.0,-2.0,-2.0,1,False,False,2622
1146,52,male,19,5,active,0,men,26,1,2.0,-2.0,-2.0,1,False,False,3569
1147,52,male,19,5,active,0,men,27,3,2.0,2.0,2.0,1,False,False,2444
1148,52,male,19,5,active,0,men,28,2,1.0,-1.0,-1.0,1,True,False,1343
1149,52,male,19,5,active,0,men,29,1,1.0,-1.0,-1.0,1,True,False,3433
1150,52,male,19,5,active,0,men,30,0,1.0,-1.0,-1.0,1,True,False,2063
1151,52,male,19,5,active,0,men,31,7,7.0,7.0,2.0,0,False,False,3909
1152,52,male,19,5,active,0,men,32,5,2.0,-2.0,-2.0,1,False,False,9408
1153,52,male,19,5,active,0,men,33,2,3.0,-3.0,-1.0,0,True,False,7094
1154,52,male,19,5,active,0,men,34,7,5.0,5.0,-1.0,0,True,False,2780
1155,52,male,19,5,active,0,men,35,6,1.0,-1.0,-1.0,1,True,False,3672
1156,52,male,19,5,active,0,men,36,3,3.0,-3.0,-2.0,0,False,False,1284
1157,52,male,19,5,active,0,men,37,5,2.0,2.0,2.0,1,False,False,2625
1158,52,male,19,5,active,0,men,38,2,3.0,-3.0,-1.0,0,True,False,3231
1159,52,male,19,5,active,0,men,39,7,5.0,5.0,1.0,0,True,True,1513
1160,52,male,19,5,active,0,men,40,6,1.0,-1.0,-1.0,1,True,False,1544
1161,52,male,19,5,active,0,men,41,2,4.0,-4.0,-1.0,0,True,False,3108
1162,52,male,19,5,active,0,men,42,6,4.0,4.0,2.0,0,False,False,2713
1163,52,male,19,5,active,0,men,43,1,5.0,-5.0,1.0,0,True,True,3121
1164,52,male,19,5,active,0,men,44,0,1.0,-1.0,-1.0,1,True,False,2229
1165,52,male,19,5,active,0,men,45,2,2.0,2.0,2.0,1,False,False,8510
1166,52,male,19,5,active,0,men,46,5,3.0,3.0,2.0,0,False,False,1351
1167,52,male,19,5,active,0,men,47,4,1.0,-1.0,-1.0,1,True,False,2492
1168,52,male,19,5,active,0,men,48,6,2.0,2.0,2.0,1,False,False,1093
1169,52,male,19,5,active,0,men,49,1,5.0,-5.0,-2.0,0,False,False,3110
1170,52,male,19,5,active,0,men,50,3,2.0,2.0,2.0,1,False,False,2973
1171,52,male,19,5,active,0,men,51,7,4.0,4.0,2.0,0,False,False,1489
1172,52,male,19,5,active,0,men,52,4,3.0,-3.0,-2.0,0,False,False,3064
1173,52,male,19,5,active,0,men,53,1,3.0,-3.0,-1.0,0,True,False,1611
1174,52,male,19,5,active,0,men,54,0,1.0,-1.0,-1.0,1,True,False,2378
1175,52,male,19,5,active,0,men,55,2,2.0,2.0,2.0,1,False,False,1308
1176,52,male,19,5,yoked,1,women,0,5,,,,0,,,6877
1177,52,male,19,5,yoked,1,women,1,7,2.0,2.0,2.0,1,False,False,2927
1178,52,male,19,5,yoked,1,women,2,1,6.0,-6.0,-1.0,0,True,False,5967
1179,52,male,19,5,yoked,1,women,3,3,2.0,2.0,2.0,1,False,False,5313
1180,52,male,19,5,yoked,1,women,4,5,2.0,2.0,2.0,1,False,False,1321
1181,52,male,19,5,yoked,1,women,5,1,4.0,-4.0,1.0,0,True,True,1566
1182,52,male,19,5,yoked,1,women,6,2,1.0,1.0,1.0,1,True,True,1893
1183,52,male,19,5,yoked,1,women,7,0,2.0,-2.0,-2.0,1,False,False,2310
1184,52,male,19,5,yoked,1,women,8,5,5.0,5.0,2.0,0,False,False,1377
1185,52,male,19,5,yoked,1,women,9,7,2.0,2.0,2.0,1,False,False,1321
1186,52,male,19,5,yoked,1,women,10,6,1.0,-1.0,-1.0,1,True,False,1195
1187,52,male,19,5,yoked,1,women,11,2,4.0,-4.0,-1.0,0,True,False,2445
1188,52,male,19,5,yoked,1,women,12,0,2.0,-2.0,-2.0,1,False,False,2075
1189,52,male,19,5,yoked,1,women,13,1,1.0,1.0,1.0,1,True,True,1014
1190,52,male,19,5,yoked,1,women,14,3,2.0,2.0,2.0,1,False,False,1276
1191,52,male,19,5,yoked,1,women,15,6,3.0,3.0,-1.0,0,True,False,1785
1192,52,male,19,5,yoked,1,women,16,1,5.0,-5.0,-2.0,0,False,False,1127
1193,52,male,19,5,yoked,1,women,17,4,3.0,3.0,1.0,0,True,True,1614
1194,52,male,19,5,yoked,1,women,18,3,1.0,-1.0,-1.0,1,True,False,2770
1195,52,male,19,5,yoked,1,women,19,6,3.0,3.0,-1.0,0,True,False,914
1196,52,male,19,5,yoked,1,women,20,5,1.0,-1.0,-1.0,1,True,False,2109
1197,52,male,19,5,yoked,1,women,21,6,1.0,1.0,1.0,1,True,True,925
1198,52,male,19,5,yoked,1,women,22,5,1.0,-1.0,-1.0,1,True,False,1455
1199,52,male,19,5,yoked,1,women,23,7,2.0,2.0,2.0,1,False,False,2614
1200,52,male,19,5,yoked,1,women,24,0,7.0,-7.0,-2.0,0,False,False,2219
1201,52,male,19,5,yoked,1,women,25,2,2.0,2.0,2.0,1,False,False,1578
1202,52,male,19,5,yoked,1,women,26,6,4.0,4.0,2.0,0,False,False,1601
1203,52,male,19,5,yoked,1,women,27,7,1.0,1.0,1.0,1,True,True,992
1204,52,male,19,5,yoked,1,women,28,1,6.0,-6.0,-2.0,0,False,False,1389
1205,52,male,19,5,yoked,1,women,29,3,2.0,2.0,2.0,1,False,False,1410
1206,52,male,19,5,yoked,1,women,30,7,4.0,4.0,1.0,0,True,True,5707
1207,52,male,19,5,yoked,1,women,31,5,2.0,-2.0,-2.0,1,False,False,4110
1208,52,male,19,5,yoked,1,women,32,6,1.0,1.0,1.0,1,True,True,3425
1209,52,male,19,5,yoked,1,women,33,5,1.0,-1.0,-1.0,1,True,False,2118
1210,52,male,19,5,yoked,1,women,34,6,1.0,1.0,1.0,1,True,True,2625
1211,52,male,19,5,yoked,1,women,35,7,1.0,1.0,1.0,1,True,True,1364
1212,52,male,19,5,yoked,1,women,36,1,6.0,-6.0,-1.0,0,True,False,1714
1213,52,male,19,5,yoked,1,women,37,5,4.0,4.0,-1.0,0,True,False,1376
1214,52,male,19,5,yoked,1,women,38,3,2.0,-2.0,-2.0,1,False,False,3694
1215,52,male,19,5,yoked,1,women,39,7,4.0,4.0,-2.0,0,False,False,1354
1216,52,male,19,5,yoked,1,women,40,4,3.0,-3.0,-2.0,0,False,False,1760
1217,52,male,19,5,yoked,1,women,41,7,3.0,3.0,1.0,0,True,True,3199
1218,52,male,19,5,yoked,1,women,42,3,4.0,-4.0,-2.0,0,False,False,2143
1219,52,male,19,5,yoked,1,women,43,1,2.0,-2.0,-2.0,1,False,False,960
1220,52,male,19,5,yoked,1,women,44,4,3.0,3.0,1.0,0,True,True,1489
1221,52,male,19,5,yoked,1,women,45,0,4.0,-4.0,-1.0,0,True,False,1590
1222,52,male,19,5,yoked,1,women,46,3,3.0,3.0,2.0,0,False,False,1219
1223,52,male,19,5,yoked,1,women,47,6,3.0,3.0,2.0,0,False,False,916
1224,52,male,19,5,yoked,1,women,48,0,6.0,-6.0,-2.0,0,False,False,1162
1225,52,male,19,5,yoked,1,women,49,3,3.0,3.0,2.0,0,False,False,1545
1226,52,male,19,5,yoked,1,women,50,6,3.0,3.0,-2.0,0,False,False,1613
1227,52,male,19,5,yoked,1,women,51,4,2.0,-2.0,-2.0,1,False,False,1354
1228,52,male,19,5,yoked,1,women,52,1,3.0,-3.0,1.0,0,True,True,1140
1229,52,male,19,5,yoked,1,women,53,4,3.0,3.0,-1.0,0,True,False,1399
1230,52,male,19,5,yoked,1,women,54,7,3.0,3.0,1.0,0,True,True,1712
1231,52,male,19,5,yoked,1,women,55,5,2.0,-2.0,-2.0,1,False,False,3852
1232,54,female,19,12,active,1,women,0,6,,,,0,,,6920
1233,54,female,19,12,active,1,women,1,1,5.0,-5.0,1.0,0,True,True,7046
1234,54,female,19,12,active,1,women,2,6,5.0,5.0,2.0,0,False,False,6101
1235,54,female,19,12,active,1,women,3,7,1.0,1.0,1.0,1,True,True,2952
1236,54,female,19,12,active,1,women,4,4,3.0,-3.0,-2.0,0,False,False,2523
1237,54,female,19,12,active,1,women,5,3,1.0,-1.0,-1.0,1,True,False,6383
1238,54,female,19,12,active,1,women,6,0,3.0,-3.0,1.0,0,True,True,4131
1239,54,female,19,12,active,1,women,7,1,1.0,1.0,1.0,1,True,True,1747
1240,54,female,19,12,active,1,women,8,2,1.0,1.0,1.0,1,True,True,1038
1241,54,female,19,12,active,1,women,9,4,2.0,2.0,2.0,1,False,False,3345
1242,54,female,19,12,active,1,women,10,5,1.0,1.0,1.0,1,True,True,2919
1243,54,female,19,12,active,1,women,11,3,2.0,-2.0,-2.0,1,False,False,4053
1244,54,female,19,12,active,1,women,12,6,3.0,3.0,-1.0,0,True,False,2232
1245,54,female,19,12,active,1,women,13,0,6.0,-6.0,-1.0,0,True,False,5663
1246,54,female,19,12,active,1,women,14,1,1.0,1.0,1.0,1,True,True,4166
1247,54,female,19,12,active,1,women,15,2,1.0,1.0,1.0,1,True,True,5135
1248,54,female,19,12,active,1,women,16,0,2.0,-2.0,-2.0,1,False,False,3895
1249,54,female,19,12,active,1,women,17,7,7.0,7.0,1.0,0,True,True,2107
1250,54,female,19,12,active,1,women,18,5,2.0,-2.0,-2.0,1,False,False,3682
1251,54,female,19,12,active,1,women,19,2,3.0,-3.0,-1.0,0,True,False,5349
1252,54,female,19,12,active,1,women,20,3,1.0,1.0,1.0,1,True,True,4236
1253,54,female,19,12,active,1,women,21,0,3.0,-3.0,-2.0,0,False,False,3929
1254,54,female,19,12,active,1,women,22,1,1.0,1.0,1.0,1,True,True,2097
1255,54,female,19,12,active,1,women,23,6,5.0,5.0,2.0,0,False,False,15744
1256,54,female,19,12,active,1,women,24,1,5.0,-5.0,1.0,0,True,True,11838
1257,54,female,19,12,active,1,women,25,4,3.0,3.0,2.0,0,False,False,5066
1258,54,female,19,12,active,1,women,26,6,2.0,2.0,2.0,1,False,False,13649
1259,54,female,19,12,active,1,women,27,0,6.0,-6.0,1.0,0,True,True,3220
1260,54,female,19,12,active,1,women,28,1,1.0,1.0,1.0,1,True,True,5402
1261,54,female,19,12,active,1,women,29,4,3.0,3.0,-1.0,0,True,False,6359
1262,54,female,19,12,active,1,women,30,2,2.0,-2.0,-2.0,1,False,False,3087
1263,54,female,19,12,active,1,women,31,1,1.0,-1.0,-1.0,1,True,False,3940
1264,54,female,19,12,active,1,women,32,0,1.0,-1.0,-1.0,1,True,False,3065
1265,54,female,19,12,active,1,women,33,1,1.0,1.0,1.0,1,True,True,12716
1266,54,female,19,12,active,1,women,34,3,2.0,2.0,2.0,1,False,False,8858
1267,54,female,19,12,active,1,women,35,5,2.0,2.0,2.0,1,False,False,3455
1268,54,female,19,12,active,1,women,36,4,1.0,-1.0,-1.0,1,True,False,6271
1269,54,female,19,12,active,1,women,37,5,1.0,1.0,1.0,1,True,True,1701
1270,54,female,19,12,active,1,women,38,2,3.0,-3.0,2.0,0,False,False,2455
1271,54,female,19,12,active,1,women,39,3,1.0,1.0,1.0,1,True,True,2018
1272,54,female,19,12,active,1,women,40,0,3.0,-3.0,1.0,0,True,True,4673
1273,54,female,19,12,active,1,women,41,5,5.0,5.0,2.0,0,False,False,1491
1274,54,female,19,12,active,1,women,42,0,5.0,-5.0,1.0,0,True,True,3805
1275,54,female,19,12,active,1,women,43,1,1.0,1.0,1.0,1,True,True,1646
1276,54,female,19,12,active,1,women,44,2,1.0,1.0,1.0,1,True,True,5291
1277,54,female,19,12,active,1,women,45,4,2.0,2.0,2.0,1,False,False,3582
1278,54,female,19,12,active,1,women,46,3,1.0,-1.0,-1.0,1,True,False,6551
1279,54,female,19,12,active,1,women,47,5,2.0,2.0,2.0,1,False,False,1390
1280,54,female,19,12,active,1,women,48,1,4.0,-4.0,2.0,0,False,False,2387
1281,54,female,19,12,active,1,women,49,0,1.0,-1.0,-1.0,1,True,False,7430
1282,54,female,19,12,active,1,women,50,2,2.0,2.0,2.0,1,False,False,5639
1283,54,female,19,12,active,1,women,51,1,1.0,-1.0,-1.0,1,True,False,1501
1284,54,female,19,12,active,1,women,52,0,1.0,-1.0,-1.0,1,True,False,1503
1285,54,female,19,12,active,1,women,53,2,2.0,2.0,2.0,1,False,False,3321
1286,54,female,19,12,active,1,women,54,6,4.0,4.0,2.0,0,False,False,4123
1287,54,female,19,12,active,1,women,55,2,4.0,-4.0,-2.0,0,False,False,1511
1288,54,female,19,12,yoked,0,men,0,0,,,,0,,,3905
1289,54,female,19,12,yoked,0,men,1,2,2.0,2.0,2.0,1,False,False,4435
1290,54,female,19,12,yoked,0,men,2,0,2.0,-2.0,-2.0,1,False,False,5661
1291,54,female,19,12,yoked,0,men,3,5,5.0,5.0,1.0,0,True,True,2479
1292,54,female,19,12,yoked,0,men,4,6,1.0,1.0,1.0,1,True,True,1691
1293,54,female,19,12,yoked,0,men,5,0,6.0,-6.0,1.0,0,True,True,2198
1294,54,female,19,12,yoked,0,men,6,2,2.0,2.0,2.0,1,False,False,1309
1295,54,female,19,12,yoked,0,men,7,6,4.0,4.0,1.0,0,True,True,2557
1296,54,female,19,12,yoked,0,men,8,1,5.0,-5.0,1.0,0,True,True,2220
1297,54,female,19,12,yoked,0,men,9,7,6.0,6.0,2.0,0,False,False,3905
1298,54,female,19,12,yoked,0,men,10,1,6.0,-6.0,-2.0,0,False,False,2151
1299,54,female,19,12,yoked,0,men,11,5,4.0,4.0,-1.0,0,True,False,1928
1300,54,female,19,12,yoked,0,men,12,2,3.0,-3.0,-1.0,0,True,False,7565
1301,54,female,19,12,yoked,0,men,13,6,4.0,4.0,-1.0,0,True,False,3984
1302,54,female,19,12,yoked,0,men,14,1,5.0,-5.0,-1.0,0,True,False,5290
1303,54,female,19,12,yoked,0,men,15,4,3.0,3.0,1.0,0,True,True,8769
1304,54,female,19,12,yoked,0,men,16,5,1.0,1.0,1.0,1,True,True,2882
1305,54,female,19,12,yoked,0,men,17,1,4.0,-4.0,-1.0,0,True,False,1567
1306,54,female,19,12,yoked,0,men,18,7,6.0,6.0,-1.0,0,True,False,2028
1307,54,female,19,12,yoked,0,men,19,1,6.0,-6.0,-2.0,0,False,False,2681
1308,54,female,19,12,yoked,0,men,20,3,2.0,2.0,2.0,1,False,False,2094
1309,54,female,19,12,yoked,0,men,21,6,3.0,3.0,1.0,0,True,True,2276
1310,54,female,19,12,yoked,0,men,22,5,1.0,-1.0,-1.0,1,True,False,1151
1311,54,female,19,12,yoked,0,men,23,2,3.0,-3.0,1.0,0,True,True,1138
1312,54,female,19,12,yoked,0,men,24,1,1.0,-1.0,-1.0,1,True,False,1063
1313,54,female,19,12,yoked,0,men,25,3,2.0,2.0,2.0,1,False,False,3874
1314,54,female,19,12,yoked,0,men,26,1,2.0,-2.0,-2.0,1,False,False,3624
1315,54,female,19,12,yoked,0,men,27,0,1.0,-1.0,-1.0,1,True,False,1410
1316,54,female,19,12,yoked,0,men,28,7,7.0,7.0,1.0,0,True,True,3423
1317,54,female,19,12,yoked,0,men,29,2,5.0,-5.0,-1.0,0,True,False,4028
1318,54,female,19,12,yoked,0,men,30,1,1.0,-1.0,-1.0,1,True,False,2377
1319,54,female,19,12,yoked,0,men,31,2,1.0,1.0,1.0,1,True,True,1276
1320,54,female,19,12,yoked,0,men,32,6,4.0,4.0,-1.0,0,True,False,1783
1321,54,female,19,12,yoked,0,men,33,7,1.0,1.0,1.0,1,True,True,3560
1322,54,female,19,12,yoked,0,men,34,2,5.0,-5.0,-2.0,0,False,False,2794
1323,54,female,19,12,yoked,0,men,35,6,4.0,4.0,-1.0,0,True,False,1455
1324,54,female,19,12,yoked,0,men,36,5,1.0,-1.0,-1.0,1,True,False,3571
1325,54,female,19,12,yoked,0,men,37,4,1.0,-1.0,-1.0,1,True,False,3760
1326,54,female,19,12,yoked,0,men,38,6,2.0,2.0,2.0,1,False,False,1535
1327,54,female,19,12,yoked,0,men,39,4,2.0,-2.0,-2.0,1,False,False,3030
1328,54,female,19,12,yoked,0,men,40,7,3.0,3.0,1.0,0,True,True,2074
1329,54,female,19,12,yoked,0,men,41,5,2.0,-2.0,-2.0,1,False,False,1556
1330,54,female,19,12,yoked,0,men,42,4,1.0,-1.0,-1.0,1,True,False,1690
1331,54,female,19,12,yoked,0,men,43,6,2.0,2.0,2.0,1,False,False,1647
1332,54,female,19,12,yoked,0,men,44,4,2.0,-2.0,-2.0,1,False,False,2850
1333,54,female,19,12,yoked,0,men,45,0,4.0,-4.0,2.0,0,False,False,2682
1334,54,female,19,12,yoked,0,men,46,1,1.0,1.0,1.0,1,True,True,1017
1335,54,female,19,12,yoked,0,men,47,2,1.0,1.0,1.0,1,True,True,791
1336,54,female,19,12,yoked,0,men,48,3,1.0,1.0,1.0,1,True,True,1028
1337,54,female,19,12,yoked,0,men,49,6,3.0,3.0,1.0,0,True,True,4615
1338,54,female,19,12,yoked,0,men,50,1,5.0,-5.0,-2.0,0,False,False,3705
1339,54,female,19,12,yoked,0,men,51,4,3.0,3.0,-1.0,0,True,False,2231
1340,54,female,19,12,yoked,0,men,52,3,1.0,-1.0,-1.0,1,True,False,2907
1341,54,female,19,12,yoked,0,men,53,2,1.0,-1.0,-1.0,1,True,False,1298
1342,54,female,19,12,yoked,0,men,54,5,3.0,3.0,-2.0,0,False,False,1242
1343,54,female,19,12,yoked,0,men,55,2,3.0,-3.0,2.0,0,False,False,2030
1344,55,male,19,40,active,0,men,0,5,,,,0,,,2595
1345,55,male,19,40,active,0,men,1,3,2.0,-2.0,-2.0,1,False,False,3243
1346,55,male,19,40,active,0,men,2,4,1.0,1.0,1.0,1,True,True,2568
1347,55,male,19,40,active,0,men,3,6,2.0,2.0,2.0,1,False,False,3233
1348,55,male,19,40,active,0,men,4,5,1.0,-1.0,-1.0,1,True,False,2242
1349,55,male,19,40,active,0,men,5,1,4.0,-4.0,1.0,0,True,True,2287
1350,55,male,19,40,active,0,men,6,7,6.0,6.0,2.0,0,False,False,4132
1351,55,male,19,40,active,0,men,7,4,3.0,-3.0,-2.0,0,False,False,7588
1352,55,male,19,40,active,0,men,8,5,1.0,1.0,1.0,1,True,True,3087
1353,55,male,19,40,active,0,men,9,6,1.0,1.0,1.0,1,True,True,2042
1354,55,male,19,40,active,0,men,10,0,6.0,-6.0,-2.0,0,False,False,1590
1355,55,male,19,40,active,0,men,11,1,1.0,1.0,1.0,1,True,True,2119
1356,55,male,19,40,active,0,men,12,2,1.0,1.0,1.0,1,True,True,1163
1357,55,male,19,40,active,0,men,13,6,4.0,4.0,-2.0,0,False,False,4989
1358,55,male,19,40,active,0,men,14,2,4.0,-4.0,1.0,0,True,True,4155
1359,55,male,19,40,active,0,men,15,5,3.0,3.0,-2.0,0,False,False,3503
1360,55,male,19,40,active,0,men,16,3,2.0,-2.0,-2.0,1,False,False,2120
1361,55,male,19,40,active,0,men,17,4,1.0,1.0,1.0,1,True,True,3997
1362,55,male,19,40,active,0,men,18,0,4.0,-4.0,-2.0,0,False,False,5514
1363,55,male,19,40,active,0,men,19,5,5.0,5.0,2.0,0,False,False,2366
1364,55,male,19,40,active,0,men,20,3,2.0,-2.0,-2.0,1,False,False,3401
1365,55,male,19,40,active,0,men,21,5,2.0,2.0,2.0,1,False,False,4098
1366,55,male,19,40,active,0,men,22,2,3.0,-3.0,1.0,0,True,True,2209
1367,55,male,19,40,active,0,men,23,4,2.0,2.0,2.0,1,False,False,4088
1368,55,male,19,40,active,0,men,24,6,2.0,2.0,2.0,1,False,False,3615
1369,55,male,19,40,active,0,men,25,5,1.0,-1.0,-1.0,1,True,False,2671
1370,55,male,19,40,active,0,men,26,1,4.0,-4.0,1.0,0,True,True,2580
1371,55,male,19,40,active,0,men,27,2,1.0,1.0,1.0,1,True,True,1636
1372,55,male,19,40,active,0,men,28,4,2.0,2.0,2.0,1,False,False,2107
1373,55,male,19,40,active,0,men,29,0,4.0,-4.0,2.0,0,False,False,4898
1374,55,male,19,40,active,0,men,30,5,5.0,5.0,2.0,0,False,False,1860
1375,55,male,19,40,active,0,men,31,1,4.0,-4.0,-1.0,0,True,False,2727
1376,55,male,19,40,active,0,men,32,3,2.0,2.0,2.0,1,False,False,2839
1377,55,male,19,40,active,0,men,33,0,3.0,-3.0,-2.0,0,False,False,3660
1378,55,male,19,40,active,0,men,34,5,5.0,5.0,1.0,0,True,True,2996
1379,55,male,19,40,active,0,men,35,4,1.0,-1.0,-1.0,1,True,False,1592
1380,55,male,19,40,active,0,men,36,0,4.0,-4.0,1.0,0,True,True,2040
1381,55,male,19,40,active,0,men,37,4,4.0,4.0,2.0,0,False,False,4481
1382,55,male,19,40,active,0,men,38,6,2.0,2.0,2.0,1,False,False,2491
1383,55,male,19,40,active,0,men,39,5,1.0,-1.0,-1.0,1,True,False,4303
1384,55,male,19,40,active,0,men,40,6,1.0,1.0,1.0,1,True,True,3559
1385,55,male,19,40,active,0,men,41,4,2.0,-2.0,-2.0,1,False,False,1895
1386,55,male,19,40,active,0,men,42,5,1.0,1.0,1.0,1,True,True,4055
1387,55,male,19,40,active,0,men,43,4,1.0,-1.0,-1.0,1,True,False,2704
1388,55,male,19,40,active,0,men,44,3,1.0,-1.0,-1.0,1,True,False,3031
1389,55,male,19,40,active,0,men,45,0,3.0,-3.0,1.0,0,True,True,5088
1390,55,male,19,40,active,0,men,46,3,3.0,3.0,2.0,0,False,False,2614
1391,55,male,19,40,active,0,men,47,0,3.0,-3.0,-1.0,0,True,False,3008
1392,55,male,19,40,active,0,men,48,1,1.0,1.0,1.0,1,True,True,2491
1393,55,male,19,40,active,0,men,49,5,4.0,4.0,2.0,0,False,False,5213
1394,55,male,19,40,active,0,men,50,6,1.0,1.0,1.0,1,True,True,2647
1395,55,male,19,40,active,0,men,51,0,6.0,-6.0,-1.0,0,True,False,5033
1396,55,male,19,40,active,0,men,52,1,1.0,1.0,1.0,1,True,True,2164
1397,55,male,19,40,active,0,men,53,6,5.0,5.0,1.0,0,True,True,4990
1398,55,male,19,40,active,0,men,54,4,2.0,-2.0,-2.0,1,False,False,1827
1399,55,male,19,40,active,0,men,55,5,1.0,1.0,1.0,1,True,True,2794
1400,55,male,19,40,yoked,1,women,0,0,,,,0,,,2332
1401,55,male,19,40,yoked,1,women,1,2,2.0,2.0,2.0,1,False,False,2254
1402,55,male,19,40,yoked,1,women,2,1,1.0,-1.0,-1.0,1,True,False,2637
1403,55,male,19,40,yoked,1,women,3,6,5.0,5.0,-1.0,0,True,False,5572
1404,55,male,19,40,yoked,1,women,4,2,4.0,-4.0,-2.0,0,False,False,2513
1405,55,male,19,40,yoked,1,women,5,3,1.0,1.0,1.0,1,True,True,1995
1406,55,male,19,40,yoked,1,women,6,1,2.0,-2.0,-2.0,1,False,False,1578
1407,55,male,19,40,yoked,1,women,7,6,5.0,5.0,2.0,0,False,False,2739
1408,55,male,19,40,yoked,1,women,8,0,6.0,-6.0,-1.0,0,True,False,1580
1409,55,male,19,40,yoked,1,women,9,4,4.0,4.0,1.0,0,True,True,1319
1410,55,male,19,40,yoked,1,women,10,6,2.0,2.0,2.0,1,False,False,2481
1411,55,male,19,40,yoked,1,women,11,4,2.0,-2.0,-2.0,1,False,False,2221
1412,55,male,19,40,yoked,1,women,12,1,3.0,-3.0,-1.0,0,True,False,2782
1413,55,male,19,40,yoked,1,women,13,0,1.0,-1.0,-1.0,1,True,False,1848
1414,55,male,19,40,yoked,1,women,14,2,2.0,2.0,2.0,1,False,False,1693
1415,55,male,19,40,yoked,1,women,15,7,5.0,5.0,1.0,0,True,True,2965
1416,55,male,19,40,yoked,1,women,16,0,7.0,-7.0,-2.0,0,False,False,3434
1417,55,male,19,40,yoked,1,women,17,2,2.0,2.0,2.0,1,False,False,3188
1418,55,male,19,40,yoked,1,women,18,7,5.0,5.0,-2.0,0,False,False,1903
1419,55,male,19,40,yoked,1,women,19,3,4.0,-4.0,-1.0,0,True,False,1692
1420,55,male,19,40,yoked,1,women,20,0,3.0,-3.0,-1.0,0,True,False,2042
1421,55,male,19,40,yoked,1,women,21,4,4.0,4.0,2.0,0,False,False,2480
1422,55,male,19,40,yoked,1,women,22,0,4.0,-4.0,-1.0,0,True,False,1353
1423,55,male,19,40,yoked,1,women,23,2,2.0,2.0,2.0,1,False,False,3829
1424,55,male,19,40,yoked,1,women,24,3,1.0,1.0,1.0,1,True,True,1963
1425,55,male,19,40,yoked,1,women,25,0,3.0,-3.0,-1.0,0,True,False,2005
1426,55,male,19,40,yoked,1,women,26,1,1.0,1.0,1.0,1,True,True,1422
1427,55,male,19,40,yoked,1,women,27,2,1.0,1.0,1.0,1,True,True,2513
1428,55,male,19,40,yoked,1,women,28,1,1.0,-1.0,-1.0,1,True,False,2400
1429,55,male,19,40,yoked,1,women,29,4,3.0,3.0,-1.0,0,True,False,2917
1430,55,male,19,40,yoked,1,women,30,6,2.0,2.0,2.0,1,False,False,2986
1431,55,male,19,40,yoked,1,women,31,4,2.0,-2.0,-2.0,1,False,False,4923
1432,55,male,19,40,yoked,1,women,32,5,1.0,1.0,1.0,1,True,True,1465
1433,55,male,19,40,yoked,1,women,33,1,4.0,-4.0,-1.0,0,True,False,2648
1434,55,male,19,40,yoked,1,women,34,0,1.0,-1.0,-1.0,1,True,False,2020
1435,55,male,19,40,yoked,1,women,35,6,6.0,6.0,1.0,0,True,True,1815
1436,55,male,19,40,yoked,1,women,36,2,4.0,-4.0,-2.0,0,False,False,1444
1437,55,male,19,40,yoked,1,women,37,4,2.0,2.0,2.0,1,False,False,1647
1438,55,male,19,40,yoked,1,women,38,7,3.0,3.0,-2.0,0,False,False,1849
1439,55,male,19,40,yoked,1,women,39,5,2.0,-2.0,-2.0,1,False,False,2637
1440,55,male,19,40,yoked,1,women,40,1,4.0,-4.0,2.0,0,False,False,1758
1441,55,male,19,40,yoked,1,women,41,5,4.0,4.0,-1.0,0,True,False,1129
1442,55,male,19,40,yoked,1,women,42,0,5.0,-5.0,-1.0,0,True,False,958
1443,55,male,19,40,yoked,1,women,43,4,4.0,4.0,1.0,0,True,True,2446
1444,55,male,19,40,yoked,1,women,44,7,3.0,3.0,-2.0,0,False,False,1692
1445,55,male,19,40,yoked,1,women,45,5,2.0,-2.0,-2.0,1,False,False,1175
1446,55,male,19,40,yoked,1,women,46,7,2.0,2.0,2.0,1,False,False,1556
1447,55,male,19,40,yoked,1,women,47,5,2.0,-2.0,-2.0,1,False,False,2591
1448,55,male,19,40,yoked,1,women,48,1,4.0,-4.0,1.0,0,True,True,1692
1449,55,male,19,40,yoked,1,women,49,6,5.0,5.0,1.0,0,True,True,2264
1450,55,male,19,40,yoked,1,women,50,4,2.0,-2.0,-2.0,1,False,False,1838
1451,55,male,19,40,yoked,1,women,51,0,4.0,-4.0,2.0,0,False,False,2198
1452,55,male,19,40,yoked,1,women,52,6,6.0,6.0,2.0,0,False,False,1278
1453,55,male,19,40,yoked,1,women,53,7,1.0,1.0,1.0,1,True,True,1320
1454,55,male,19,40,yoked,1,women,54,5,2.0,-2.0,-2.0,1,False,False,1579
1455,55,male,19,40,yoked,1,women,55,3,2.0,-2.0,-2.0,1,False,False,1298
1456,56,male,20,10,active,1,men,0,5,,,,0,,,5707
